time,seconds_elapsed,z,y,x
1767625004537974800,0.089974853515625,0.15821409225463867,0.02871066704392433,0.3597996234893799
1767625004557705200,0.109705322265625,0.21074850857257843,-0.00366519158706069,0.6401867866516113
1767625004597780700,0.14978076171875,0.394618958234787,-0.4043927788734436,0.6340781450271606
1767625004637870600,0.18987060546875,0.3988949954509735,0.39156460762023926,0.5943718552589417
1767625004657955600,0.20995556640625,0.44287729263305664,0.8857545852661133,0.3830125033855438
1767625004677960700,0.229960693359375,0.5247332453727722,0.9272934198379517,-0.06536258012056351
1767625004718024200,0.270024169921875,0.1270599663257599,0.7177666425704956,-0.6798930168151855
1767625004758106400,0.3101064453125,0.13988813757896423,0.827111542224884,-0.6200281977653503
1767625004798194000,0.35019384765625,0.3903428912162781,0.543059229850769,-0.8454375267028809
1767625004838271000,0.39027099609375,0.24923302233219147,0.42699480056762695,-0.7422012686729431
1767625004878347500,0.430347412109375,0.47830748558044434,0.3549126982688904,-1.2113457918167114
1767625004918428000,0.470427978515625,0.7299839854240417,0.5455026626586914,-1.1337659358978271
1767625004958492700,0.51049267578125,0.6951646208763123,0.34697145223617554,-1.2767083644866943
1767625004998580000,0.550580078125,1.3017538785934448,1.0714576244354248,-1.737911581993103
1767625005018661600,0.57066162109375,1.5656476020812988,1.1093312501907349,-1.8863518238067627
1767625005038649900,0.59064990234375,1.7910568714141846,1.0030407905578613,-2.0201313495635986
1767625005078737000,0.63073681640625,1.9840903282165527,0.6701191663742065,-2.129476308822632
1767625005118835200,0.670835205078125,2.175291061401367,1.416596531867981,-2.3188445568084717
1767625005158911000,0.710910888671875,1.8197675943374634,1.4330898523330688,-2.648711681365967
1767625005178985000,0.73098486328125,1.55892813205719,1.5931365489959717,-2.1227567195892334
1767625005198967800,0.7509677734375,1.207680583000183,1.8582520484924316,-1.8008307218551636
1767625005239044400,0.79104443359375,0.8045095205307007,2.428189277648926,-1.5467108488082886
1767625005259128800,0.81112890625,0.5436700582504272,2.4086415767669678,-1.2278391122817993
1767625005279141400,0.831141357421875,0.2968805134296417,2.146580457687378,-0.8869763612747192
1767625005299229400,0.8512294921875,0.25106561183929443,1.9999728202819824,-0.8069530129432678
1767625005319228700,0.871228759765625,0.3536909818649292,1.7678439617156982,-0.7898487448692322
1767625005339320800,0.89132080078125,0.3243694305419922,1.1453723907470703,-0.8417723178863525
1767625005359315000,0.91131494140625,0.12461651116609573,0.7739662528038025,-0.8057312369346619
1767625005399384000,0.951384033203125,-0.7556403279304504,0.9749409556388855,-0.28649580478668213
1767625005439437000,0.99143701171875,-0.001832595793530345,2.0946569442749023,0.10934487730264664
1767625005479497500,1.03149755859375,-0.0910189226269722,1.189354658126831,-0.01466076634824276
1767625005519566600,1.071566650390625,-0.6010913848876953,0.4856378734111786,0.15760323405265808
1767625005559624200,1.111624267578125,-0.6884451508522034,0.6023131608963013,-0.060475658625364304
1767625005579695400,1.1316953125,-0.9816604256629944,0.5528330206871033,-0.11239920556545258
1767625005599693600,1.151693603515625,-1.264491081237793,0.03787364438176155,-0.24678955972194672
1767625005639754500,1.19175439453125,-0.978606104850769,0.5601634383201599,0.04153883829712868
1767625005679802600,1.231802734375,-0.9236282706260681,0.5497786998748779,-0.25595253705978394
1767625005719859700,1.271859619140625,-0.7525860071182251,0.6902777552604675,-0.2370157092809677
1767625005739934500,1.2919345703125,-0.6218608021736145,0.3982841372489929,-0.31154128909111023
1767625005759939600,1.311939697265625,-0.3738495409488678,0.4795292317867279,-0.27977627515792847
1767625005800002000,1.352001953125,0.02626720629632473,0.15454891324043274,-0.07452555745840073
1767625005820074200,1.37207421875,-0.04642575979232788,0.2877175211906433,0.34636059403419495
1767625005840063700,1.392063720703125,-0.22846360504627228,0.019547687843441963,0.3933972120285034
1767625005880125000,1.432125,-1.4770721197128296,-0.5913175344467163,0.3634648323059082
1767625005900195600,1.452195556640625,-1.6242907047271729,-0.3219259977340698,-0.29626965522766113
1767625005920173300,1.47217333984375,-1.176526427268982,-0.2125810980796814,-0.31459560990333557
1767625005960237800,1.51223779296875,-1.076344609260559,-0.413555771112442,-0.013439035043120384
1767625006000305200,1.55230517578125,-1.5363260507583618,-0.2730567753314972,-0.4398229718208313
1767625006020379600,1.572379638671875,-1.7073683738708496,-0.6200281977653503,-0.1716531366109848
1767625006040369000,1.592368896484375,-1.8167132139205933,-0.7904596328735352,-0.8087855577468872
1767625006080438800,1.632438720703125,-2.7201828956604004,-0.9340129494667053,-1.9339994192123413
1767625006120506000,1.672506103515625,-2.0384573936462402,-0.15577064454555511,-1.570534586906433
1767625006140581600,1.69258154296875,-1.5766432285308838,-0.8332201838493347,-0.627358615398407
1767625006160564700,1.712564697265625,-0.45631635189056396,-0.6133087277412415,0.1362229436635971
1767625006180638500,1.732638427734375,-0.21868975460529327,-0.2974913716316223,-0.4080579876899719
1767625006200627500,1.75262744140625,-0.24007004499435425,-0.1514945775270462,-0.19425514340400696
1767625006220699000,1.772698974609375,-0.2321287989616394,-0.2577851414680481,0.06963863968849182
1767625006240701700,1.79270166015625,-0.20402899384498596,-0.11056660860776901,0.23945917189121246
1767625006280780500,1.832780517578125,0.22052235901355743,1.568701982498169,1.4953981637954712
1767625006320850400,1.872850341796875,0.02076941914856434,-0.4911356568336487,-0.41661009192466736
1767625006340923600,1.892923583984375,-0.4098905920982361,-0.34208452701568604,0.3793473243713379
1767625006360914000,1.912913818359375,-0.7757988572120667,-0.7153232097625732,1.0348057746887207
1767625006400973600,1.9529736328125,-0.3292563557624817,-0.4703662395477295,0.18081611394882202
1767625006441035800,1.993035888671875,0.6035348773002625,-0.004886921960860491,-0.04398229718208313
1767625006481109800,2.03310986328125,0.5314527750015259,-1.0421360731124878,1.3713924884796143
1767625006521183700,2.073183837890625,-0.9492846131324768,-0.5577199459075928,0.5974262356758118
1767625006561253000,2.113253173828125,-2.2314908504486084,0.21807889640331268,-0.8185594081878662
1767625006601324800,2.15332470703125,-1.1301007270812988,-0.4056145250797272,0.04642575979232788
1767625006641390300,2.193390380859375,-0.04642575979232788,-0.010995574295520782,-0.018936822190880775
1767625006681469400,2.233469482421875,-0.42760565876960754,-0.47708576917648315,-0.39156460762023926
1767625006701548500,2.253548583984375,-0.4612032473087311,-0.24678955972194672,-0.5180137157440186
1767625006721556500,2.273556396484375,-0.24923302233219147,-0.13805554807186127,-0.04337143152952194
1767625006761629700,2.313629638671875,-0.09162978827953339,-0.2571742534637451,0.6047565937042236
1767625006801702400,2.353702392578125,0.06414084881544113,-0.5155702829360962,0.4355469346046448
1767625006841782800,2.39378271484375,-0.039706241339445114,0.1417207419872284,0.1215621829032898
1767625006881853400,2.433853515625,-0.24617868661880493,-0.2822197377681732,0.3677408695220947
1767625006921933300,2.473933349609375,-0.13377949595451355,-0.3793473243713379,0.13316862285137177
1767625006942022000,2.49402197265625,-0.07635815441608429,-0.2565633952617645,0.04948008432984352
1767625006962042400,2.51404248046875,-0.07330382615327835,-0.2577851414680481,0.00427605677396059
1767625007002143200,2.554143310546875,0.04337143152952194,-0.32681289315223694,-0.15515977144241333
1767625007042236000,2.59423583984375,0.09224065393209457,-0.5021312236785889,-0.32681289315223694
1767625007082327300,2.634327392578125,0.14844025671482086,-0.36651915311813354,-0.3854559659957886
1767625007102417700,2.654417724609375,0.1514945775270462,-0.26633724570274353,-0.4105014503002167
1767625007122400800,2.67440087890625,0.12522737681865692,-0.17837265133857727,-0.4092797040939331
1767625007142495200,2.6944951171875,0.11056660860776901,-0.018325956538319588,-0.3878994286060333
1767625007162507000,2.714507080078125,0.08735372871160507,0.15515977144241333,-0.45814892649650574
1767625007202598700,2.7545986328125,0.14966198801994324,0.394008070230484,-0.5577199459075928
1767625007222677500,2.774677490234375,0.14782938361167908,0.32009339332580566,-0.5259549617767334
1767625007242683600,2.79468359375,0.09529497474431992,0.3683517575263977,-0.4153883755207062
1767625007282784000,2.834783935546875,0.031154127791523933,0.720820963382721,-0.43737950921058655
1767625007322887400,2.874887451171875,0.1667662113904953,0.7947356700897217,-0.6591235995292664
1767625007362962000,2.9149619140625,0.31093040108680725,0.5858197808265686,-0.8454375267028809
1767625007403057200,2.95505712890625,0.1417207419872284,0.19058994948863983,-0.7519751191139221
1767625007423148500,2.9751484375,0.0861319974064827,0.20586158335208893,-0.6829473376274109
1767625007443166700,2.995166748046875,0.060475658625364304,0.2571742534637451,-0.6377432942390442
1767625007483263700,3.035263671875,0.09285151958465576,0.23518311977386475,-0.4294382631778717
1767625007523350300,3.075350341796875,0.2620611786842346,0.5626068711280823,-0.29504790902137756
1767625007563443500,3.115443359375,0.21502456068992615,0.7929030656814575,-0.33292156457901
1767625007603513600,3.155513671875,0.16432274878025055,1.1459832191467285,-0.3933972120285034
1767625007643610000,3.195610107421875,0.0659734457731247,1.217454433441162,-0.39095374941825867
1767625007683714800,3.23571484375,-0.07024950534105301,1.0751228332519531,-0.3536909818649292
1767625007703802600,3.255802734375,-0.1368338167667389,1.064738154411316,-0.413555771112442
1767625007723808500,3.27580859375,-0.08979719132184982,0.9584475755691528,-0.46792277693748474
1767625007763915300,3.315915283203125,-0.03726277872920036,0.5943718552589417,-0.5717698931694031
1767625007784004600,3.336004638671875,-0.05192354694008827,0.4740314185619354,-0.5809328556060791
1767625007804118500,3.356118408203125,-0.04703662544488907,0.4153883755207062,-0.49357911944389343
1767625007844192300,3.396192138671875,-0.021380282938480377,0.5839871764183044,-0.34574973583221436
1767625007884288500,3.43628857421875,-0.016493361443281174,0.38667771220207214,-0.3787364661693573
1767625007904379400,3.45637939453125,-0.1459967941045761,0.3634648323059082,-0.4043927788734436
1767625007924363500,3.476363525390625,-0.11178833991289139,0.5607742667198181,-0.3836233615875244
1767625007964457000,3.51645703125,-0.006719517521560192,0.8704829812049866,-0.2577851414680481
1767625008004569000,3.556569091796875,0.14477506279945374,0.7611380815505981,0.05803219974040985
1767625008044633000,3.596633056640625,0.33658674359321594,0.30543261766433716,0.4764748811721802
1767625008084690200,3.636690185546875,0.33475416898727417,0.30054569244384766,1.32863187789917
1767625008124774100,3.676774169921875,0.27061331272125244,-0.00733038317412138,2.22171688079834
1767625008164873500,3.71687353515625,0.44104471802711487,0.41233405470848083,2.4782803058624268
1767625008184952600,3.73695263671875,0.4813618063926697,0.1875356286764145,2.3408355712890625
1767625008204951000,3.756950927734375,0.6065891981124878,-0.3243694305419922,2.193617105484009
1767625008245023200,3.797023193359375,0.816726803779602,-0.9535606503486633,1.8894062042236328
1767625008285107000,3.83710693359375,0.6505714654922485,-1.1246029138565063,1.7061465978622437
1767625008325169700,3.877169677734375,0.5406157374382019,-1.0824532508850098,1.5815300941467285
1767625008345250300,3.897250244140625,0.5626068711280823,-1.0506882667541504,1.4208725690841675
1767625008365313800,3.917313720703125,0.5210680365562439,-1.0073168277740479,1.2198978662490845
1767625008405421800,3.957421875,0.27550023794174194,-1.0348057746887207,0.8753699064254761
1767625008445504000,3.99750390625,0.11545353382825851,-0.44715335965156555,0.3982841372489929
1767625008485572400,4.037572265625,-0.08918632566928864,0.0507018156349659,0.00366519158706069
1767625008525644300,4.077644287109375,-0.49846604466438293,0.1264491081237793,-0.28038713335990906
1767625008545727000,4.09772705078125,-0.5650503635406494,0.1667662113904953,-0.5259549617767334
1767625008565715200,4.117715087890625,-0.5803219676017761,0.32559117674827576,-0.8063421249389648
1767625008605792800,4.157792724609375,-0.50335294008255,0.6524040699005127,-1.3836097717285156
1767625008645888800,4.197888671875,-0.38240164518356323,0.3292563557624817,-1.177748203277588
1767625008685964300,4.23796435546875,-0.17531833052635193,0.013439035043120384,-0.5393940210342407
1767625008726036000,4.278035888671875,0.10690141469240189,-0.05314527451992035,0.04581489413976669
1767625008766115800,4.31811572265625,-0.13988813757896423,-0.3194825351238251,-0.2565633952617645
1767625008806177300,4.35817724609375,-0.014049900695681572,0.16982053220272064,-0.8038986921310425
1767625008826253300,4.37825341796875,0.19547687470912933,0.4996877610683441,-0.7037167549133301
1767625008846242800,4.398242919921875,0.35063666105270386,0.8344419002532959,-0.7476990818977356
1767625008866319400,4.4183193359375,0.06475171446800232,1.0781772136688232,-0.607200026512146
1767625008886322400,4.438322509765625,-0.19853121042251587,1.3573426008224487,-0.6236934065818787
1767625008926387000,4.478386962890625,-0.1820378452539444,1.1850786209106445,-1.2052371501922607
1767625008966524000,4.51852392578125,-0.09773843735456467,0.20891591906547546,-0.8820894360542297
1767625009006614300,4.5586142578125,0.11972958594560623,0.6713408827781677,-0.7183775305747986
1767625009046685400,4.598685546875,0.15271630883216858,1.7446311712265015,-0.8038986921310425
1767625009066768000,4.618767822265625,0.17043140530586243,2.032959461212158,-0.7544185519218445
1767625009086768000,4.63876806640625,0.19853121042251587,2.079996109008789,-0.656680166721344
1767625009126876200,4.678876220703125,0.17531833052635193,1.8979582786560059,-0.5473352670669556
1767625009166975700,4.718975830078125,0.1765400618314743,1.4001030921936035,-0.5613851547241211
1767625009207083300,4.759083251953125,0.09896016865968704,1.216843605041504,-0.6108652353286743
1767625009247183400,4.799183349609375,0.08246681094169617,1.0800096988677979,-0.694553792476654
1767625009287261000,4.839260986328125,-0.0403171069920063,0.8943067193031311,-0.6841690540313721
1767625009327365400,4.879365478515625,-0.11850785464048386,0.9156870245933533,-0.6126978397369385
1767625009367475000,4.919474853515625,-0.2767219543457031,0.8442157506942749,-0.35552358627319336
1767625009407570000,4.95956982421875,-0.1966986060142517,0.7739662528038025,-0.3597996234893799
1767625009447664600,4.99966455078125,-0.0708603709936142,0.7525860071182251,-0.2565633952617645
1767625009467757600,5.019757568359375,-0.016493361443281174,0.7367035150527954,-0.24862214922904968
1767625009487768300,5.039768310546875,-0.06780604273080826,0.7544185519218445,-0.25473082065582275
1767625009527844600,5.0798447265625,-0.13744467496871948,1.0702359676361084,-0.1514945775270462
1767625009567947000,5.119947021484375,0.17959438264369965,1.0506882667541504,0.029932396486401558
1767625009588026600,5.140026611328125,0.3280346393585205,0.8594874143600464,0.22479841113090515
1767625009608035300,5.160035400390625,0.3286454975605011,0.6798930168151855,0.4758640229701996
1767625009648117800,5.20011767578125,0.1368338167667389,0.6792821288108826,1.4892895221710205
1767625009688220700,5.240220703125,0.15515977144241333,0.637132465839386,2.334116220474243
1767625009728301300,5.28030126953125,0.14355333149433136,1.1447614431381226,2.6083946228027344
1767625009768382500,5.320382568359375,0.07819075137376785,0.9853256344795227,2.172236919403076
1767625009808469800,5.3604697265625,0.2926044464111328,-0.2675589919090271,1.8350391387939453
1767625009828555300,5.38055517578125,0.32620203495025635,-0.8637634515762329,1.7122552394866943
1767625009848576000,5.400575927734375,0.34086281061172485,-1.1203268766403198,1.5619823932647705
1767625009888667100,5.440667236328125,0.4893030524253845,-0.8649851679801941,1.4007140398025513
1767625009928767200,5.480767333984375,0.5919284224510193,-0.5064072608947754,1.0629055500030518
1767625009968876300,5.520876220703125,0.19425514340400696,-0.23579397797584534,0.6597344875335693
1767625010008948000,5.560947998046875,-0.3078760802745819,0.20830504596233368,0.13377949595451355
1767625010049031200,5.60103125,-0.4813618063926697,0.36651915311813354,-0.4331034719944
1767625010089132300,5.64113232421875,-0.41722095012664795,0.32131510972976685,-0.8210029006004333
1767625010129219600,5.681219482421875,-0.27122417092323303,0.29138273000717163,-0.8558222055435181
1767625010169317600,5.721317626953125,-0.059864792972803116,0.030543262138962746,-0.7067710757255554
1767625010209412400,5.761412353515625,0.2767219543457031,-0.36529740691185,0.3549126982688904
1767625010249481500,5.8014814453125,0.49357911944389343,-0.24007004499435425,0.5125159621238708
1767625010289552400,5.841552490234375,-0.20952677726745605,-0.2064724564552307,-0.1667662113904953
1767625010329635800,5.8816357421875,-0.4098905920982361,-0.4715879559516907,-0.6872233748435974
1767625010369710300,5.92171044921875,0.4404338300228119,0.8717046976089478,-0.7452555894851685
1767625010409786000,5.9617861328125,-0.18325957655906677,1.623068928718567,-1.140485405921936
1767625010449863000,6.00186279296875,-0.4966334402561188,0.8356636762619019,-1.4495831727981567
1767625010489926100,6.041926025390625,-0.17837265133857727,0.21074850857257843,-1.1814134120941162
1767625010530005200,6.082005126953125,-0.006108652334660292,0.6420193910598755,-1.2638801336288452
1767625010550091800,6.102091796875,-0.04703662544488907,1.0891727209091187,-1.2626584768295288
1767625010570100000,6.122099853515625,0.06169738993048668,1.5057828426361084,-1.1545352935791016
1767625010610193000,6.16219287109375,0.12522737681865692,1.4856243133544922,-0.6829473376274109
1767625010650287900,6.202287841796875,0.11056660860776901,1.3768903017044067,-0.4954117238521576
1767625010690371600,6.24237158203125,0.08796459436416626,0.9902125597000122,-0.6139195561408997
1767625010730437000,6.28243701171875,0.004886921960860491,0.5522221922874451,-0.8686503767967224
1767625010770538200,6.322538330078125,-0.15271630883216858,0.2993239760398865,-0.9358455538749695
1767625010790627000,6.342626953125,-0.16737708449363708,0.28955012559890747,-0.901637077331543
1767625010810614000,6.362614013671875,-0.1563815027475357,0.38240164518356323,-0.8191702961921692
1767625010850720500,6.402720458984375,-0.18814650177955627,0.6004805564880371,-0.4813618063926697
1767625010890822000,6.44282177734375,-0.1918116807937622,0.5858197808265686,-0.23579397797584534
1767625010930909400,6.482909423828125,-0.08429940044879913,0.5271766781806946,-0.26022860407829285
1767625010950999300,6.502999267578125,-0.07269296050071716,0.6407976150512695,-0.2718350291252136
1767625010970983200,6.522983154296875,-0.09346238523721695,0.9822713136672974,-0.23335053026676178
1767625010991065000,6.543065185546875,-0.32009339332580566,1.0067058801651,-0.01466076634824276
1767625011011067600,6.563067626953125,-0.056810468435287476,0.7550294399261475,0.08918632566928864
1767625011051152400,6.60315234375,0.33475416898727417,0.251676470041275,0.49785518646240234
1767625011091228200,6.643228271484375,0.3952298164367676,0.4184426963329315,1.4141530990600586
1767625011131326700,6.68332666015625,0.20525072515010834,0.2718350291252136,2.41719388961792
1767625011171423500,6.723423583984375,0.22602014243602753,0.598647952079773,2.456289052963257
1767625011211495400,6.763495361328125,0.2987131178379059,0.005497787147760391,2.3157901763916016
1767625011251590100,6.803590087890625,0.44165557622909546,-0.7086036801338196,1.9339994192123413
1767625011291672800,6.8436728515625,0.5564982295036316,-1.5430456399917603,1.7873916625976562
1767625011331755000,6.883755126953125,0.7220427393913269,-1.6395623683929443,1.434922456741333
1767625011371857400,6.923857421875,0.7782423496246338,-1.397048830986023,0.959669291973114
1767625011391938600,6.9439384765625,0.6517932415008545,-1.33168625831604,0.7874053120613098
1767625011411948000,6.963947998046875,0.42149701714515686,-1.2198978662490845,0.5571091175079346
1767625011452013300,7.004013427734375,-0.03298672288656235,-0.5009095072746277,-0.05192354694008827
1767625011492086300,7.044086181640625,-0.1875356286764145,-0.20463985204696655,-0.5937610268592834
1767625011532161800,7.084161865234375,-0.19608774781227112,-0.22846360504627228,-0.9089674949645996
1767625011552245000,7.104244873046875,-0.22052235901355743,-0.21013765037059784,-1.0543533563613892
1767625011572242700,7.12424267578125,-0.19608774781227112,-0.2571742534637451,-1.0824532508850098
1767625011612328000,7.164327880859375,0.015271631069481373,-0.6340781450271606,-0.4178318381309509
1767625011652407600,7.204407470703125,0.6377432942390442,-0.8283332586288452,0.7916813492774963
1767625011692475400,7.244475341796875,0.4447098970413208,0.06536258012056351,0.20463985204696655
1767625011732555500,7.284555419921875,-0.2926044464111328,-0.3390302062034607,-0.37140607833862305
1767625011772645400,7.324645263671875,-0.09651670604944229,-0.24373523890972137,-0.17104226350784302
1767625011812716500,7.364716552734375,0.08979719132184982,1.1410962343215942,-0.5742133259773254
1767625011852788000,7.4047880859375,-0.4031710624694824,1.6383405923843384,-1.387274980545044
1767625011892861000,7.44486083984375,-0.5015203952789307,0.06414084881544113,-1.2962560653686523
1767625011932917800,7.484917724609375,0.1368338167667389,0.16554448008537292,-1.378722906112671
1767625011972991700,7.52499169921875,-0.10262536257505417,1.1722503900527954,-1.4477506875991821
1767625011993078500,7.54507861328125,-0.17531833052635193,1.9675970077514648,-1.4636331796646118
1767625012013098200,7.56509814453125,-0.06108652427792549,2.1398608684539795,-1.2498302459716797
1767625012053178600,7.6051787109375,0.00427605677396059,1.4776830673217773,-0.7232644557952881
1767625012093268700,7.645268798828125,-0.027488935738801956,0.7275404930114746,-0.8546004891395569
1767625012133354000,7.68535400390625,0.07696902006864548,0.4856378734111786,-0.8546004891395569
1767625012173411600,7.72541162109375,0.06719517707824707,0.5711590051651001,-0.6963863968849182
1767625012213497300,7.765497314453125,-0.12461651116609573,0.25473082065582275,-0.7012733221054077
1767625012253595100,7.80559521484375,-0.28588494658470154,0.43676865100860596,-0.6530149579048157
1767625012293685200,7.845685302734375,-0.31581732630729675,0.4856378734111786,-0.5112941861152649
1767625012333780000,7.885780029296875,-0.1264491081237793,0.4856378734111786,-0.3891211748123169
1767625012373878000,7.9258779296875,-0.03787364438176155,0.6572909951210022,-0.34697145223617554
1767625012413953800,7.965953857421875,-0.15271630883216858,0.7293730974197388,-0.2565633952617645
1767625012454051000,8.006051025390626,-0.24923302233219147,1.0005972385406494,-0.06536258012056351
1767625012494134000,8.046134033203124,-0.03481931984424591,0.5913175344467163,0.3549126982688904
1767625012514213000,8.066213134765626,0.32559117674827576,0.494189977645874,0.4789183437824249
1767625012534210800,8.0862109375,0.3683517575263977,0.019547687843441963,0.8906415104866028
1767625012554293200,8.106293212890625,0.28649580478668213,-0.09896016865968704,1.4422528743743896
1767625012574289200,8.1262890625,0.23640485107898712,-0.027488935738801956,1.9999728202819824
1767625012614372600,8.16637255859375,0.3481931984424591,-0.15271630883216858,2.711019992828369
1767625012654444800,8.20644482421875,0.607810914516449,0.12339477986097336,2.490497589111328
1767625012694524400,8.2465244140625,0.8326093554496765,-0.3280346393585205,2.054950714111328
1767625012734606300,8.2866064453125,0.79840087890625,-1.7238616943359375,1.7629570960998535
1767625012774685200,8.326685302734376,0.7550294399261475,-2.1282544136047363,1.3103059530258179
1767625012794765300,8.346765380859376,0.7422012686729431,-1.9437731504440308,1.1655309200286865
1767625012814776300,8.3667763671875,0.7941248416900635,-1.7440202236175537,1.0396926403045654
1767625012854875000,8.406875,0.7751879692077637,-1.7733417749404907,0.6579018831253052
1767625012894953500,8.446953369140624,0.46670106053352356,-1.405600905418396,0.1869247704744339
1767625012915029800,8.46702978515625,0.2577851414680481,-0.9584475755691528,-0.0403171069920063
1767625012935018800,8.487018798828124,0.1368338167667389,-0.5729916095733643,-0.23273965716362
1767625012955094800,8.5070947265625,0.06963863968849182,-0.3023782968521118,-0.34697145223617554
1767625012975096800,8.527096923828125,0.02076941914856434,-0.14905111491680145,-0.4178318381309509
1767625013015175700,8.56717578125,-0.1062905490398407,-0.11423180252313614,-0.6524040699005127
1767625013055266300,8.607266357421874,-0.18325957655906677,-0.0403171069920063,-0.941343367099762
1767625013095368200,8.6473681640625,-0.051312681287527084,0.09712757170200348,-0.4349360466003418
1767625013115458800,8.667458740234375,0.09957103431224823,0.17837265133857727,0.03848451003432274
1767625013135444200,8.6874443359375,0.24923302233219147,0.10201449692249298,0.3591887652873993
1767625013175509200,8.72750927734375,0.46303585171699524,0.3952298164367676,0.48258355259895325
1767625013195584500,8.74758447265625,0.18509216606616974,0.021380282938480377,0.2590068578720093
1767625013215587000,8.767587158203124,-0.09834930300712585,-0.5907067060470581,-0.04214970022439957
1767625013255659300,8.8076591796875,-0.06169738993048668,-0.827722430229187,-0.3536909818649292
1767625013295737600,8.847737548828125,0.059864792972803116,0.3842342495918274,-0.3952298164367676
1767625013335807000,8.887806884765626,-0.26083946228027344,1.6908750534057617,-1.2675453424453735
1767625013375874300,8.927874267578124,-0.42638394236564636,0.6743952035903931,-1.3310753107070923
1767625013415941400,8.96794140625,-0.07513642311096191,-0.12095131725072861,-1.0641272068023682
1767625013456015400,9.008015380859375,-0.02687807008624077,0.5766568183898926,-1.3720033168792725
1767625013496095500,9.048095458984376,-0.06963863968849182,1.547932505607605,-1.303586483001709
1767625013536178400,9.088178466796874,0.09346238523721695,1.9230037927627563,-0.7550294399261475
1767625013576278500,9.128278564453124,0.14355333149433136,1.7318029403686523,-0.394008070230484
1767625013596369000,9.148368896484374,0.06108652427792549,1.4092661142349243,-0.4098905920982361
1767625013616359200,9.168359130859375,0.014049900695681572,1.0268645286560059,-0.4795292317867279
1767625013656559400,9.208559326171875,0.11667526513338089,0.9724974632263184,-0.6383541822433472
1767625013696671700,9.248671630859375,0.10873401165008545,0.8765916228294373,-0.6884451508522034
1767625013736771000,9.28877099609375,-0.11789698898792267,0.6976081132888794,-0.6304129362106323
1767625013776878300,9.32887841796875,-0.19914206862449646,0.6933320760726929,-0.5778785347938538
1767625013816971300,9.36897119140625,-0.20341812074184418,0.8943067193031311,-0.4245513379573822
1767625013857044700,9.409044677734375,-0.10506882518529892,0.7782423496246338,-0.36529740691185
1767625013877137200,9.42913720703125,-0.051312681287527084,0.8491026759147644,-0.394008070230484
1767625013897150700,9.449150634765624,-0.05192354694008827,0.8930850028991699,-0.4056145250797272
1767625013917243000,9.469242919921875,-0.04581489413976669,0.902247965335846,-0.34086281061172485
1767625013937229800,9.489229736328125,-0.06902777403593063,0.9718865752220154,-0.2840523421764374
1767625013957320200,9.5093203125,-0.11728613078594208,1.1527026891708374,-0.2822197377681732
1767625013977331200,9.529331298828126,-0.16737708449363708,1.3200798034667969,-0.23090706765651703
1767625014017433000,9.56943310546875,-0.15760323405265808,1.5717562437057495,-0.10262536257505417
1767625014057527000,9.609527099609375,0.2638937830924988,1.207069754600525,0.15454891324043274
1767625014077608200,9.629608154296875,0.29565876722335815,1.0140362977981567,0.43676865100860596
1767625014097597400,9.649597412109374,0.2021963894367218,0.8851437568664551,0.9077457785606384
1767625014137705200,9.689705322265626,0.22602014243602753,1.0476338863372803,1.8399261236190796
1767625014177820400,9.7298203125,0.3029891550540924,1.0555751323699951,2.601675033569336
1767625014197907200,9.7499072265625,0.26939156651496887,0.9816604256629944,2.7012460231781006
1767625014217920800,9.769920654296875,0.1215621829032898,1.254717230796814,2.56257963180542
1767625014258008600,9.810008544921875,0.2926044464111328,0.8546004891395569,1.9004018306732178
1767625014298086100,9.850086181640625,0.34758231043815613,-0.10873401165008545,1.443474531173706
1767625014338164000,9.8901640625,0.17348572611808777,-0.6383541822433472,1.2705997228622437
1767625014378248000,9.930248046875,0.2828305959701538,-0.26022860407829285,0.9547823667526245
1767625014398338000,9.950338134765625,0.28649580478668213,-0.26572638750076294,0.8210029006004333
1767625014418351000,9.97035107421875,0.18325957655906677,-0.36590829491615295,0.66584312915802
1767625014458433000,10.01043310546875,-0.17531833052635193,-0.2565633952617645,0.24068090319633484
1767625014478510600,10.030510498046874,-0.31093040108680725,0.03420845419168472,0.003054326167330146
1767625014498505500,10.05050537109375,-0.3084869384765625,0.2791654169559479,-0.23090706765651703
1767625014538603300,10.090603271484374,-0.16371189057826996,0.46853363513946533,-0.5198463201522827
1767625014558692600,10.110692626953124,-0.06414084881544113,0.5241223573684692,-0.5571091175079346
1767625014578676500,10.130676513671874,0.02687807008624077,0.6188064813613892,-0.5558874011039734
1767625014618764500,10.1707646484375,0.28038713335990906,0.5192354321479797,-0.5253441333770752
1767625014638850000,10.19085009765625,0.32070425152778625,0.2840523421764374,-0.4495968222618103
1767625014658841300,10.21084130859375,0.3433062732219696,0.11850785464048386,-0.3677408695220947
1767625014698943500,10.250943603515625,0.2724458873271942,0.004886921960860491,-0.1062905490398407
1767625014739049700,10.2910498046875,0.0555887371301651,-0.04459316283464432,0.10995574295520782
1767625014759141000,10.31114111328125,-0.10384709388017654,-0.16920967400074005,0.10690141469240189
1767625014779153200,10.331153076171875,-0.23396138846874237,-0.3701843321323395,-0.09224065393209457
1767625014819231700,10.371231689453126,-0.2736676335334778,-0.45326200127601624,-0.8100073337554932
1767625014859304200,10.41130419921875,-0.10934487730264664,0.08918632566928864,-1.2376129627227783
1767625014899385000,10.451385009765625,0.2321287989616394,0.6383541822433472,-0.5314527750015259
1767625014939456500,10.49145654296875,-0.015882495790719986,1.3817771673202515,-0.4948008358478546
1767625014959538000,10.511537841796875,-0.2742784917354584,1.9462167024612427,-0.769690215587616
1767625014979537400,10.531537353515626,-0.4996877610683441,2.210721254348755,-1.2034045457839966
1767625015019615500,10.571615478515625,-0.3481931984424591,1.1905763149261475,-0.9144652485847473
1767625015059683800,10.611683837890626,0.2724458873271942,0.5925393104553223,-0.7195992469787598
1767625015099768800,10.651768798828124,0.35735616087913513,1.1673635244369507,-0.6359107494354248
1767625015139865300,10.691865234375,0.23090706765651703,1.8600846529006958,-0.5436700582504272
1767625015159955200,10.711955078125,0.09529497474431992,2.0757200717926025,-0.513126790523529
1767625015179956000,10.7319560546875,0.02932153269648552,2.182621479034424,-0.49235737323760986
1767625015220040000,10.7720400390625,0.03726277872920036,1.6798794269561768,-0.5198463201522827
1767625015240130800,10.792130859375,-0.01038470957428217,1.3084733486175537,-0.6010913848876953
1767625015260141800,10.812141845703126,-0.012217304669320583,1.064738154411316,-0.6218608021736145
1767625015300224300,10.852224365234376,0.08429940044879913,1.0659598112106323,-0.5797111392021179
1767625015340324900,10.892324951171876,0.009773843921720982,0.8558222055435181,-0.5326744914054871
1767625015360432000,10.91243212890625,-0.059864792972803116,0.8136724829673767,-0.5027421116828918
1767625015400546300,10.95254638671875,-0.1869247704744339,0.6701191663742065,-0.45265114307403564
1767625015420554800,10.9725546875,-0.24373523890972137,0.7043276429176331,-0.42210787534713745
1767625015440648700,10.992648681640626,-0.29626965522766113,0.7061602473258972,-0.4001167416572571
1767625015460661500,11.01266162109375,-0.29016098380088806,0.5992587804794312,-0.3433062732219696
1767625015480753200,11.032753173828125,-0.251676470041275,0.47280970215797424,-0.33597588539123535
1767625015500763000,11.052762939453125,-0.20830504596233368,0.4349360466003418,-0.34147366881370544
1767625015540845000,11.092844970703124,-0.20341812074184418,0.45142942667007446,-0.29504790902137756
1767625015580952600,11.13295263671875,-0.31031954288482666,0.49724429845809937,-0.1771509200334549
1767625015621066000,11.17306591796875,-0.2926044464111328,0.7861835956573486,-0.09896016865968704
1767625015661149400,11.2131494140625,0.08979719132184982,0.5528330206871033,0.02076941914856434
1767625015701229600,11.2532294921875,0.22357667982578278,0.20097467303276062,0.4404338300228119
1767625015741313500,11.2933134765625,0.033597588539123535,0.2376265823841095,1.4202617406845093
1767625015781383400,11.333383544921874,-0.051312681287527084,0.27550023794174194,2.422691583633423
1767625015821458200,11.373458251953124,0.2076941877603531,0.19608774781227112,2.713463306427002
1767625015841542400,11.39354248046875,0.45142942667007446,0.3891211748123169,2.5418102741241455
1767625015861544700,11.413544677734375,0.778853178024292,-0.07757988572120667,2.2962424755096436
1767625015901615600,11.45361572265625,1.0024298429489136,-1.016479730606079,1.7104226350784302
1767625015941696000,11.493696044921874,0.8399397134780884,-1.7660114765167236,1.3243558406829834
1767625015981778700,11.53377880859375,0.7379252314567566,-1.742187738418579,1.0910053253173828
1767625016021927700,11.573927734375,0.9376781582832336,-1.6584991216659546,1.0140362977981567
1767625016042019300,11.594019287109376,0.9034696817398071,-1.9101755619049072,0.931569516658783
1767625016062026800,11.61402685546875,0.7544185519218445,-1.8949040174484253,0.7483099102973938
1767625016102100000,11.654099853515625,0.3536909818649292,-1.2553280591964722,0.242513507604599
1767625016142164200,11.694164306640625,0.019547687843441963,-0.5418374538421631,-0.13927727937698364
1767625016182237400,11.734237548828125,-0.12095131725072861,-0.24190263450145721,-0.31642818450927734
1767625016222298600,11.774298583984375,-0.2431243658065796,-0.09285151958465576,-0.6090326309204102
1767625016262355200,11.814355224609375,-0.1466076523065567,0.0024434609804302454,-0.99876469373703
1767625016302424800,11.8544248046875,0.029932396486401558,-0.12095131725072861,-0.5338962078094482
1767625016342500400,11.894500244140625,0.3787364661693573,-0.5485569834709167,0.5937610268592834
1767625016382561800,11.934561767578124,0.5833762884140015,-0.5858197808265686,0.27122417092323303
1767625016422623200,11.974623291015625,0.033597588539123535,-1.2302825450897217,-0.5943718552589417
1767625016462685700,12.014685791015625,-0.1411098688840866,-0.656680166721344,-1.0714576244354248
1767625016502734000,12.054734130859375,0.10934487730264664,0.21624629199504852,-0.4746423065662384
1767625016542797300,12.09479736328125,-0.4453207552433014,1.2577714920043945,-0.8185594081878662
1767625016582871300,12.134871337890624,-0.5100724697113037,0.588263213634491,-1.4422528743743896
1767625016622932500,12.174932373046875,0.14049901068210602,-0.26022860407829285,-1.1129964590072632
1767625016663000300,12.215000244140626,0.3139847218990326,0.646906316280365,-1.1966849565505981
1767625016703073500,12.255073486328126,0.0861319974064827,1.7159204483032227,-1.158811330795288
1767625016743136000,12.295135986328125,0.0959058403968811,1.4801265001296997,-0.7641924023628235
1767625016783226000,12.33522607421875,0.039095375686883926,1.1020009517669678,-0.6414085030555725
1767625016803312600,12.355312744140624,0.06536258012056351,0.9914342761039734,-0.6505714654922485
1767625016823332400,12.375332275390624,0.07757988572120667,0.9492846131324768,-0.6743952035903931
1767625016863435500,12.415435546875,0.08124507963657379,0.7195992469787598,-0.7806857824325562
1767625016903534000,12.4555341796875,-0.036041051149368286,0.4489859640598297,-0.8594874143600464
1767625016943633400,12.49563330078125,-0.19792033731937408,0.5705481171607971,-0.720820963382721
1767625016983718700,12.53571875,-0.2535090744495392,0.7305948138237,-0.5210680365562439
1767625017023815700,12.575815673828124,-0.21502456068992615,0.665232241153717,-0.40072759985923767
1767625017043902000,12.59590185546875,-0.1362229436635971,0.608421802520752,-0.34636059403419495
1767625017063913000,12.615912841796876,-0.054367005825042725,0.6218608021736145,-0.35246923565864563
1767625017104005000,12.656005126953126,-0.11239920556545258,0.6255260109901428,-0.2638937830924988
1767625017144098000,12.69609814453125,-0.15271630883216858,1.0152580738067627,-0.15271630883216858
1767625017184182300,12.736182373046875,-0.08735372871160507,0.6621779203414917,0.25473082065582275
1767625017224251100,12.776251220703125,0.23640485107898712,0.30482175946235657,0.7257078886032104
1767625017264329500,12.81632958984375,0.13744467496871948,0.30543261766433716,1.6468926668167114
1767625017304424700,12.8564248046875,-0.0708603709936142,0.45692721009254456,2.453845739364624
1767625017344517400,12.896517333984375,0.04153883829712868,0.8735373020172119,2.596788167953491
1767625017384609000,12.936609130859376,0.4795292317867279,0.18081611394882202,2.110539436340332
1767625017424681700,12.976681640625,0.6291912198066711,-0.9395107626914978,1.654223084449768
1767625017464757200,13.01675732421875,0.5894849896430969,-1.6395623683929443,1.4666874408721924
1767625017504846300,13.056846435546875,0.7360926270484924,-1.443474531173706,1.273043155670166
1767625017524939000,13.07693896484375,0.8289441466331482,-1.4257594347000122,1.1551461219787598
1767625017544929000,13.096928955078125,0.826500654220581,-1.455691933631897,1.0195341110229492
1767625017585016000,13.13701611328125,0.43127086758613586,-1.2754865884780884,0.6224716901779175
1767625017625090000,13.177090087890624,0.036651913076639175,-0.7147123217582703,0.04459316283464432
1767625017665156400,13.21715625,-0.12278391420841217,-0.2932153046131134,-0.413555771112442
1767625017705218000,13.257218017578126,-0.06108652427792549,-0.13377949595451355,-0.7391469478607178
1767625017745299500,13.297299560546875,-0.0507018156349659,-0.1661553531885147,-0.8643743395805359
1767625017785362200,13.337362060546875,0.03787364438176155,-0.5406157374382019,-0.5247332453727722
1767625017825427200,13.37742724609375,0.3988949954509735,-0.9584475755691528,0.8881980776786804
1767625017865497300,13.417497314453126,0.7452555894851685,-0.7678576111793518,0.48319441080093384
1767625017905570800,13.45757080078125,0.019547687843441963,-0.656069278717041,-0.4599815309047699
1767625017945635000,13.497635009765625,-0.14049901068210602,-0.5968153476715088,-0.3830125033855438
1767625017985714400,13.53771435546875,0.38667771220207214,0.30054569244384766,-0.12950342893600464
1767625018025805600,13.5778056640625,-0.27122417092323303,1.825876235961914,-1.214400053024292
1767625018065883000,13.6178828125,-0.38117989897727966,0.7018841505050659,-1.3029755353927612
1767625018105958000,13.6579580078125,0.12889257073402405,-0.05314527451992035,-1.1148290634155273
1767625018146033000,13.698032958984374,-0.1612684279680252,0.6188064813613892,-1.4593570232391357
1767625018186113000,13.738113037109375,-0.43249258399009705,1.7647897005081177,-1.5271631479263306
1767625018226203600,13.77820361328125,-0.07391469180583954,1.1801916360855103,-1.074512004852295
1767625018266301000,13.818301025390625,-0.003054326167330146,0.7660250067710876,-0.8881980776786804
1767625018306407700,13.85840771484375,0.022602014243602753,0.2816088795661926,-0.6902777552604675
1767625018346512600,13.8985126953125,-0.08124507963657379,0.1466076523065567,-0.9340129494667053
1767625018366606800,13.91860693359375,-0.07330382615327835,-0.06963863968849182,-0.9425650835037231
1767625018386618600,13.93861865234375,-0.12217304855585098,0.08185594528913498,-0.8210029006004333
1767625018426688500,13.9786884765625,-0.23396138846874237,0.012217304669320583,-0.8326093554496765
1767625018466785500,14.01878564453125,-0.27611109614372253,0.06719517707824707,-0.7299839854240417
1767625018486878500,14.03887841796875,-0.20952677726745605,0.1716531366109848,-0.6029239892959595
1767625018506903600,14.058903564453125,-0.14049901068210602,0.36713001132011414,-0.47769662737846375
1767625018547000800,14.099000732421874,-0.1319468915462494,0.4990769028663635,-0.34513887763023376
1767625018587162000,14.139162109375,-0.15882496535778046,0.6493497490882874,-0.2687807083129883
1767625018627255000,14.179255126953125,-0.1820378452539444,0.9266825914382935,-0.004886921960860491
1767625018667339800,14.21933984375,0.22418753802776337,0.3225368559360504,0.23945917189121246
1767625018707417300,14.259417236328124,0.03298672288656235,0.009162978269159794,0.9443976879119873
1767625018747516200,14.29951611328125,0.22418753802776337,0.20402899384498596,1.7354681491851807
1767625018787613400,14.339613525390625,0.05619960278272629,0.21991148591041565,2.2876904010772705
1767625018827720000,14.379719970703125,0.1514945775270462,0.41722095012664795,2.2595906257629395
1767625018867956000,14.4199560546875,0.4996877610683441,-0.2687807083129883,1.948660135269165
1767625018908034300,14.460034423828125,0.7067710757255554,-1.3292428255081177,1.5668693780899048
1767625018948144400,14.500144287109375,0.7183775305747986,-1.9480493068695068,1.3939944505691528
1767625018988249000,14.5402490234375,0.8442157506942749,-1.6847662925720215,1.047023057937622
1767625019028354800,14.580354736328125,0.8759807348251343,-1.5827518701553345,0.808174729347229
1767625019068469000,14.620468994140625,0.5662720799446106,-1.4391984939575195,0.5894849896430969
1767625019108557600,14.6605576171875,0.1973094791173935,-0.8704829812049866,0.09346238523721695
1767625019148630000,14.700630126953126,0.05375614017248154,-0.6823364496231079,-0.15271630883216858
1767625019188725000,14.74072509765625,-0.009773843921720982,-0.7037167549133301,-0.384845107793808
1767625019228834000,14.780833984375,-0.02076941914856434,-0.504574716091156,-0.656069278717041
1767625019268946200,14.8209462890625,0.022602014243602753,-0.5827654600143433,-0.44776421785354614
1767625019309046000,14.8610458984375,0.2840523421764374,-0.42149701714515686,0.19303341209888458
1767625019349125600,14.901125732421875,0.6621779203414917,-0.4758640229701996,0.4147774875164032
1767625019389208800,14.941208740234375,0.40194934606552124,-0.7745771408081055,-0.14905111491680145
1767625019429292500,14.98129248046875,-0.07452555745840073,-0.8210029006004333,-0.7831292152404785
1767625019469378000,15.0213779296875,0.05925392732024193,-0.4294382631778717,-0.27122417092323303
1767625019509453600,15.06145361328125,-0.25045475363731384,0.5143485069274902,-0.4153883755207062
1767625019549538600,15.10153857421875,-0.22357667982578278,1.4941763877868652,-1.2162326574325562
1767625019589625900,15.1416259765625,-0.39584067463874817,0.26450464129447937,-1.226617455482483
1767625019629701000,15.181701171875,0.021380282938480377,-0.2767219543457031,-1.0543533563613892
1767625019669789700,15.221789794921875,-0.04642575979232788,0.24434609711170197,-1.103833556175232
1767625019709893000,15.26189306640625,-0.06719517707824707,1.0170906782150269,-1.0366383790969849
1767625019750008800,15.3020087890625,-0.03420845419168472,1.2302825450897217,-0.7318165898323059
1767625019790117600,15.34211767578125,0.05009094998240471,0.9584475755691528,-0.5626068711280823
1767625019830221600,15.3822216796875,0.0403171069920063,0.4447098970413208,-0.7232644557952881
1767625019870303700,15.4223037109375,0.04337143152952194,0.2528982162475586,-0.7043276429176331
1767625019890397700,15.442397705078125,0.05497787147760391,0.24007004499435425,-0.675006091594696
1767625019910406400,15.462406494140625,-0.012217304669320583,0.1661553531885147,-0.7061602473258972
1767625019930497800,15.482497802734375,-0.07452555745840073,0.039706241339445114,-0.7354817390441895
1767625019950514700,15.5025146484375,-0.1508837193250656,-0.06780604273080826,-0.7464773058891296
1767625019990616800,15.542616943359375,-0.1918116807937622,-0.1459967941045761,-0.637132465839386
1767625020030750700,15.582750732421875,-0.24495697021484375,0.03237585723400116,-0.5375614166259766
1767625020070854400,15.6228544921875,-0.22968533635139465,-0.10751228034496307,-0.4911356568336487
1767625020090947300,15.642947265625,-0.1667662113904953,-0.2064724564552307,-0.46853363513946533
1767625020110937300,15.662937255859376,-0.056810468435287476,0.03787364438176155,-0.4599815309047699
1767625020151047400,15.70304736328125,-0.07635815441608429,0.3597996234893799,-0.3029891550540924
1767625020191165000,15.7431650390625,-0.15393804013729095,0.3225368559360504,-0.09529497474431992
1767625020231258400,15.78325830078125,0.21013765037059784,-0.07147123664617538,0.11789698898792267
1767625020271339000,15.823339111328124,0.1875356286764145,-0.5748242139816284,0.503963828086853
1767625020311443500,15.863443359375,0.029932396486401558,-0.513737678527832,1.2565498352050781
1767625020331542500,15.88354248046875,-0.03848451003432274,-0.4056145250797272,1.660942554473877
1767625020351531800,15.90353173828125,-0.13744467496871948,-0.22296582162380219,2.0286834239959717
1767625020391617300,15.9436171875,-0.17898350954055786,-0.38179078698158264,2.6615397930145264
1767625020431698700,15.98369873046875,0.08307767659425735,-0.44837507605552673,2.5130996704101562
1767625020471771000,16.02377099609375,0.7409795522689819,-1.2211196422576904,1.8093829154968262
1767625020511849000,16.063848876953124,0.9676105380058289,-2.3292291164398193,1.4471397399902344
1767625020551936000,16.10393603515625,1.217454433441162,-2.6810874938964844,1.131933331489563
1767625020592018000,16.144017822265624,1.4092661142349243,-2.777604341506958,0.7049384713172913
1767625020632122000,16.1841220703125,1.2962560653686523,-2.8906142711639404,0.2064724564552307
1767625020672220700,16.224220703125,1.1233811378479004,-2.674368143081665,-0.3781255781650543
1767625020692310000,16.24431005859375,1.0775662660598755,-2.539977788925171,-0.6359107494354248
1767625020712317400,16.2643173828125,1.0042624473571777,-2.381152629852295,-0.8491026759147644
1767625020752397300,16.304397216796875,0.7183775305747986,-2.043344259262085,-0.7660250067710876
1767625020792483000,16.344483154296874,0.6065891981124878,-2.492330312728882,-0.5619960427284241
1767625020832550100,16.384550048828125,0.38667771220207214,-2.5900685787200928,-0.7458664774894714
1767625020872632300,16.42463232421875,0.17043140530586243,-1.8099937438964844,-0.6359107494354248
1767625020892718800,16.44471875,0.32498031854629517,-1.282817006111145,-0.6389650702476501
1767625020912730000,16.464730224609376,0.5583308339118958,-1.0946705341339111,-0.5540547966957092
1767625020932818400,16.484818359375,0.7397578358650208,-1.4367550611495972,-0.45204028487205505
1767625020952823600,16.504823486328124,0.9553932547569275,-1.8637498617172241,-0.578489363193512
1767625020992923600,16.544923583984374,1.0555751323699951,-2.236377716064453,-1.036027431488037
1767625021033015000,16.58501513671875,0.3292563557624817,-2.023796558380127,-0.646906316280365
1767625021073083100,16.625083251953125,-0.44226643443107605,-1.4257594347000122,-0.4086688458919525
1767625021113162500,16.66516259765625,-0.6579018831253052,-0.6792821288108826,-0.9523389339447021
1767625021133241600,16.68524169921875,-0.7293730974197388,-0.7391469478607178,-0.9547823667526245
1767625021153252000,16.705252197265626,-0.5803219676017761,-1.4043792486190796,-0.6603453159332275
1767625021193342700,16.7453427734375,-0.31520646810531616,-1.8093829154968262,-0.41722095012664795
1767625021213425700,16.76542578125,-0.31093040108680725,-1.690264105796814,-0.5448917746543884
1767625021233443000,16.785443115234376,-0.4599815309047699,-1.7727309465408325,-0.5198463201522827
1767625021253540000,16.8055400390625,-0.6780604124069214,-1.958433985710144,-0.3481931984424591
1767625021273553400,16.825553466796876,-0.7385360598564148,-2.096489429473877,-0.19486601650714874
1767625021313631000,16.865630859375,-0.3805690407752991,-2.3719897270202637,-0.19058994948863983
1767625021353713400,16.90571337890625,0.04153883829712868,-2.403754711151123,-0.12950342893600464
1767625021373804300,16.92580419921875,0.11178833991289139,-2.2821924686431885,-0.12767083942890167
1767625021393812500,16.9458125,0.036041051149368286,-2.0476202964782715,-0.17287486791610718
1767625021433922000,16.985922119140625,-0.054367005825042725,-1.8496999740600586,-0.26022860407829285
1767625021474026200,17.026026123046876,-0.09346238523721695,-2.109928607940674,-0.1368338167667389
1767625021514130200,17.066130126953126,-0.09712757170200348,-1.8759671449661255,-0.34697145223617554
1767625021554215400,17.10621533203125,-0.23396138846874237,-1.690264105796814,-0.4453207552433014
1767625021594319600,17.146319580078124,-0.3579670190811157,-1.5968017578125,-0.42577308416366577
1767625021634425600,17.186425537109375,-0.3634648323059082,-1.2571606636047363,-0.2718350291252136
1767625021674526000,17.22652587890625,-0.37751471996307373,-0.9321803450584412,-0.17348572611808777
1767625021694619600,17.24661962890625,-0.3689626157283783,-0.8497135639190674,-0.16920967400074005
1767625021714634200,17.26663427734375,-0.3500257730484009,-0.8032878041267395,-0.2480112910270691
1767625021754736400,17.306736328125,-0.3292563557624817,-0.5393940210342407,-0.24190263450145721
1767625021774830800,17.326830810546873,-0.3182607889175415,-0.48808133602142334,-0.2431243658065796
1767625021794823200,17.3468232421875,-0.3952298164367676,-0.4740314185619354,-0.15821409225463867
1767625021834933800,17.386933837890624,-0.242513507604599,-0.7684684991836548,0.016493361443281174
1767625021875049700,17.4270498046875,-0.4899139404296875,-1.1044443845748901,0.2620611786842346
1767625021915144700,17.467144775390626,-0.3139847218990326,-1.1575896739959717,0.7037167549133301
1767625021955256000,17.507256103515626,-0.3292563557624817,-1.3115277290344238,1.3829989433288574
1767625021995362000,17.547362060546874,-0.2119702398777008,-1.4801265001296997,1.9871445894241333
1767625022035447600,17.587447509765624,0.04153883829712868,-1.378722906112671,2.230268955230713
1767625022075545900,17.6275458984375,0.35735616087913513,-1.0286970138549805,2.063502788543701
1767625022115662000,17.667662109375,0.9712757468223572,-1.0610729455947876,1.6267341375350952
1767625022155775200,17.707775146484376,1.5180001258850098,-1.6267341375350952,1.3255776166915894
1767625022195889400,17.747889404296874,1.4789047241210938,-2.5919013023376465,1.1007791757583618
1767625022235995000,17.787994873046873,1.3909401893615723,-2.4465153217315674,1.0299187898635864
1767625022276083000,17.8280830078125,1.207069754600525,-1.8539760112762451,0.8228355050086975
1767625022316188000,17.86818798828125,0.9028588533401489,-1.5558737516403198,0.6108652353286743
1767625022336285200,17.88828515625,0.7751879692077637,-1.5503759384155273,0.5082398653030396
1767625022356305400,17.908305419921874,0.6304129362106323,-1.4422528743743896,0.3830125033855438
1767625022376402200,17.928402099609375,0.5143485069274902,-1.2198978662490845,0.2119702398777008
1767625022396414200,17.948414306640625,0.37568211555480957,-0.9443976879119873,0.051312681287527084
1767625022436520400,17.9885205078125,0.1514945775270462,-0.5082398653030396,-0.16371189057826996
1767625022476619000,18.028618896484375,0.03176499158143997,-0.12339477986097336,-0.43249258399009705
1767625022516706000,18.0687060546875,-0.10812314599752426,0.17776179313659668,-0.6762278079986572
1767625022556811300,18.108811279296877,-0.14782938361167908,0.2718350291252136,-0.5021312236785889
1767625022596896000,18.14889599609375,-0.0006108652451075613,0.27550023794174194,-0.23640485107898712
1767625022636981800,18.188981689453126,0.11178833991289139,-0.01038470957428217,0.13988813757896423
1767625022677072100,18.229072021484374,0.05497787147760391,-0.3842342495918274,-0.1368338167667389
1767625022717172000,18.269171875,-0.016493361443281174,-0.4337143301963806,-0.694553792476654
1767625022737249800,18.289249755859377,0.036651913076639175,-0.2571742534637451,-0.8136724829673767
1767625022757335300,18.309335205078124,0.22663100063800812,0.17287486791610718,-0.788016140460968
1767625022797415200,18.349415283203125,0.09346238523721695,0.5455026626586914,-0.7874053120613098
1767625022817500700,18.369500732421876,-0.22968533635139465,0.8411614298820496,-0.675006091594696
1767625022837508600,18.389508544921874,-0.4190535545349121,1.5057828426361084,-1.102611780166626
1767625022877591600,18.429591552734376,-0.303600013256073,0.8491026759147644,-1.330464482307434
1767625022917675500,18.469675537109374,-0.01160643994808197,0.2028072625398636,-0.8423831462860107
1767625022957767200,18.50976708984375,0.21868975460529327,0.4489859640598297,-0.7116580009460449
1767625022997844700,18.5498447265625,0.26450464129447937,1.2712105512619019,-0.6713408827781677
1767625023037943300,18.589943359375,0.26511552929878235,1.8839083909988403,-0.5632177591323853
1767625023058035000,18.610034912109374,0.2779437005519867,2.001805305480957,-0.5699372887611389
1767625023078051600,18.630051513671877,0.2871066629886627,1.8625280857086182,-0.5106833577156067
1767625023118148600,18.670148681640626,0.19975294172763824,1.1142182350158691,-0.5082398653030396
1767625023158256000,18.710256103515626,0.15271630883216858,0.8582656979560852,-0.5326744914054871
1767625023198359600,18.750359619140625,0.18325957655906677,1.1386528015136719,-0.4746423065662384
1767625023218451000,18.770450927734377,0.1765400618314743,1.2272282838821411,-0.4697553813457489
1767625023238442800,18.79044287109375,0.11362093687057495,1.1276572942733765,-0.4764748811721802
1767625023278546000,18.8305458984375,0.012217304669320583,0.9773843884468079,-0.4306600093841553
1767625023318653200,18.870653076171877,-0.02626720629632473,1.091616153717041,-0.35552358627319336
1767625023358759700,18.910759765625,-0.051312681287527084,1.0170906782150269,-0.31031954288482666
1767625023398864100,18.950864013671875,-0.06352998316287994,0.9334021210670471,-0.3793473243713379
1767625023438972700,18.99097265625,-0.04153883829712868,0.9291260242462158,-0.39767327904701233
1767625023479055600,19.0310556640625,-0.01038470957428217,1.1484266519546509,-0.28588494658470154
1767625023519161000,19.0711611328125,-0.02321287989616394,1.2333369255065918,-0.1716531366109848
1767625023559277600,19.111277587890626,-0.009162978269159794,1.2974777221679688,-0.11911872029304504
1767625023599374600,19.15137451171875,0.24373523890972137,0.9132435321807861,0.04886921867728233
1767625023639462400,19.19146240234375,0.25961771607398987,0.6029239892959595,0.4795292317867279
1767625023679555800,19.231555908203124,0.27061331272125244,0.8381071090698242,1.3170254230499268
1767625023719635700,19.2716357421875,0.2718350291252136,1.0922271013259888,2.1203131675720215
1767625023759750700,19.311750732421874,0.2272418737411499,1.3426817655563354,2.5784621238708496
1767625023799872300,19.351872314453125,0.25534167885780334,1.1856894493103027,2.3164010047912598
1767625023839958800,19.391958740234376,0.4190535545349121,0.39156460762023926,1.7513506412506104
1767625023880060000,19.432059814453126,0.2168571650981903,-0.675006091594696,1.5711454153060913
1767625023920155400,19.4721552734375,0.19364428520202637,-0.675006091594696,1.4147639274597168
1767625023960236300,19.512236328125,0.31520646810531616,-0.5833762884140015,1.1624765396118164
1767625023980329500,19.53232958984375,0.20586158335208893,-0.6450737118721008,1.0458012819290161
1767625024000330500,19.55233056640625,-0.07024950534105301,-0.5845980644226074,0.9266825914382935
1767625024040436700,19.592436767578125,-0.5723807215690613,0.07819075137376785,0.3640756905078888
1767625024080518100,19.63251806640625,-0.6108652353286743,0.2687807083129883,-0.13500121235847473
1767625024120625200,19.672625244140626,-0.4300491213798523,0.36163222789764404,-0.46303585171699524
1767625024160723000,19.712722900390624,-0.21502456068992615,0.5479460954666138,-0.7342600226402283
1767625024200804600,19.7528046875,0.054367005825042725,0.5473352670669556,-0.912021815776825
1767625024240914000,19.792913818359374,0.15332718193531036,0.09896016865968704,-0.8008443117141724
1767625024261008400,19.81300830078125,0.15760323405265808,-0.18387043476104736,-0.4605923891067505
1767625024281013000,19.833012939453123,0.16371189057826996,-0.3243694305419922,-0.09285151958465576
1767625024321090600,19.873090576171876,-0.07024950534105301,-0.323147714138031,0.2773328125476837
1767625024361172500,19.91317236328125,-0.3078760802745819,-0.617584764957428,-0.20586158335208893
1767625024401265400,19.953265380859374,-0.38179078698158264,0.1563815027475357,-0.9297369122505188
1767625024441345000,19.993344970703124,0.030543262138962746,0.912021815776825,-0.778853178024292
1767625024481431600,20.033431640625,0.1722639948129654,1.4862351417541504,-0.6890559792518616
1767625024521521000,20.07352099609375,-0.010995574295520782,1.6694947481155396,-1.4343116283416748
1767625024560702500,20.112702392578125,-0.01160643994808197,0.4056145250797272,-1.0751228332519531
1767625024600788200,20.152788330078124,0.13805554807186127,0.6884451508522034,-0.7806857824325562
1767625024620949800,20.17294970703125,0.20402899384498596,1.1264355182647705,-0.7067710757255554
1767625024640962800,20.192962890625,0.25106561183929443,1.395827054977417,-0.7024950385093689
1767625024681033500,20.233033447265626,0.3323107063770294,1.246165156364441,-0.7867944240570068
1767625024701115400,20.253115478515625,0.26511552929878235,1.120937705039978,-0.8423831462860107
1767625024721120800,20.273120849609374,0.24984388053417206,1.166752576828003,-0.6963863968849182
1767625024741212200,20.293212158203126,0.22602014243602753,1.3561208248138428,-0.608421802520752
1767625024761227000,20.31322705078125,0.1869247704744339,1.4685200452804565,-0.6212499737739563
1767625024801329000,20.353328857421875,0.059864792972803116,0.9425650835037231,-0.5406157374382019
1767625024841438200,20.393438232421875,0.06230825558304787,1.103833556175232,-0.48197266459465027
1767625024881539000,20.4335390625,-0.0659734457731247,0.9492846131324768,-0.4691445231437683
1767625024921620500,20.473620361328123,-0.14049901068210602,0.8301658630371094,-0.4990769028663635
1767625024961727000,20.51372705078125,-0.18631389737129211,0.8338310718536377,-0.4544837474822998
1767625024981817000,20.533817138671875,-0.20891591906547546,0.7574729323387146,-0.4489859640598297
1767625025001827600,20.55382763671875,-0.23945917189121246,0.6670648455619812,-0.4355469346046448
1767625025041922800,20.5939228515625,-0.2742784917354584,0.4306600093841553,-0.4196644127368927
1767625025082026500,20.634026611328125,-0.11484266817569733,0.21319197118282318,-0.37751471996307373
1767625025122120200,20.6741201171875,-0.06291911751031876,0.5265658497810364,-0.2938261926174164
1767625025142204200,20.6942041015625,-0.12217304855585098,0.901637077331543,-0.21013765037059784
1767625025162188500,20.7141884765625,-0.1973094791173935,1.1618657112121582,-0.13439035415649414
1767625025202281500,20.754281494140624,-0.06475171446800232,0.8894197940826416,0.1062905490398407
1767625025222363600,20.77436376953125,0.07941248267889023,0.6817256212234497,0.16737708449363708
1767625025242385000,20.794385009765627,0.2064724564552307,0.494189977645874,0.2919935882091522
1767625025282471700,20.8344716796875,0.12034045159816742,0.10506882518529892,0.9236282706260681
1767625025322551800,20.8745517578125,0.13500121235847473,0.24617868661880493,1.7299703359603882
1767625025362651100,20.914651123046873,0.2278527319431305,0.5577199459075928,2.3347270488739014
1767625025402738000,20.954738037109376,0.4990769028663635,0.7648032903671265,2.461786985397339
1767625025422816500,20.97481640625,0.6212499737739563,0.7751879692077637,2.20583438873291
1767625025442810400,20.994810302734376,0.6579018831253052,0.5564982295036316,1.8411478996276855
1767625025462889200,21.01488916015625,0.7147123217582703,-0.3543018400669098,1.6939293146133423
1767625025482892000,21.03489208984375,0.6725626587867737,-1.0555751323699951,1.6633861064910889
1767625025522981600,21.074981689453125,0.2987131178379059,-1.2999212741851807,1.5845844745635986
1767625025563082000,21.11508203125,0.48197266459465027,-1.1753047704696655,1.3817771673202515
1767625025603182300,21.155182373046873,0.6640105247497559,-1.1924089193344116,1.103833556175232
1767625025643251700,21.195251708984376,0.15760323405265808,-1.2388347387313843,0.6597344875335693
1767625025683327700,21.23532763671875,-0.3194825351238251,-0.413555771112442,-0.06475171446800232
1767625025703411200,21.2554111328125,-0.384845107793808,-0.16371189057826996,-0.3445279896259308
1767625025723417000,21.2754169921875,-0.35124751925468445,-0.003054326167330146,-0.5338962078094482
1767625025763492400,21.315492431640624,-0.394008070230484,0.1264491081237793,-0.8423831462860107
1767625025803587000,21.355587158203125,-0.37079519033432007,-0.003054326167330146,-1.1582005023956299
1767625025843667700,21.395667724609375,-0.08674286305904388,-0.5448917746543884,-0.5167919993400574
1767625025883746300,21.435746337890624,0.26511552929878235,-0.7183775305747986,0.9639453291893005
1767625025923823400,21.4758232421875,0.14966198801994324,-0.2577851414680481,0.16493362188339233
1767625025963908900,21.515908935546875,-0.47219884395599365,-0.7739662528038025,-0.797789990901947
1767625026003981300,21.555981201171875,-0.09346238523721695,-0.04642575979232788,-0.6536257863044739
1767625026024058600,21.57605859375,0.3378084897994995,0.5931501388549805,-0.7513642311096191
1767625026044055300,21.59605517578125,0.1765400618314743,1.3255776166915894,-1.0848966836929321
1767625026084126200,21.636126220703126,-0.5088507533073425,1.9120081663131714,-1.7140878438949585
1767625026124189000,21.67618896484375,-0.00733038317412138,0.6035348773002625,-1.2687671184539795
1767625026164263700,21.716263671875,0,0.4251621961593628,-0.9340129494667053
1767625026184343600,21.736343505859374,-0.036041051149368286,0.49357911944389343,-0.7929030656814575
1767625026204351000,21.75635107421875,0.12217304855585098,0.4599815309047699,-0.7232644557952881
1767625026244436500,21.7964365234375,0.17287486791610718,1.2223412990570068,-0.789237916469574
1767625026284520200,21.836520263671876,0.1508837193250656,1.7495180368423462,-0.5992587804794312
1767625026324601000,21.87660107421875,0.08979719132184982,1.2278391122817993,-0.5864306092262268
1767625026344689000,21.89668896484375,0.0910189226269722,0.8607091307640076,-0.6548475623130798
1767625026364672500,21.916672607421877,0.12889257073402405,0.6762278079986572,-0.7965682744979858
1767625026404765700,21.956765625,0.06658431142568588,0.48319441080093384,-0.8326093554496765
1767625026424855300,21.976855224609373,0.025656340643763542,0.6053674817085266,-0.7305948138237
1767625026444871400,21.996871337890624,-0.02076941914856434,0.827111542224884,-0.6536257863044739
1767625026484975600,22.0369755859375,-0.10201449692249298,0.7764097452163696,-0.6126978397369385
1767625026525076500,22.077076416015625,-0.08368854224681854,0.7244861721992493,-0.6328563690185547
1767625026545167400,22.09716748046875,-0.05925392732024193,0.5638286471366882,-0.5968153476715088
1767625026565177900,22.117177734375,-0.04642575979232788,0.5155702829360962,-0.5406157374382019
1767625026605254100,22.157254150390624,-0.10262536257505417,0.4550946056842804,-0.3885102868080139
1767625026645362700,22.19736279296875,-0.1514945775270462,0.5919284224510193,-0.3378084897994995
1767625026665458400,22.21745849609375,-0.1459967941045761,0.6328563690185547,-0.30482175946235657
1767625026685475800,22.237475830078125,-0.1411098688840866,0.6969972252845764,-0.27000242471694946
1767625026725579800,22.277579833984376,-0.10751228034496307,0.8906415104866028,-0.16798794269561768
1767625026745675300,22.29767529296875,-0.10567969083786011,1.0183123350143433,-0.06841690838336945
1767625026765691600,22.317691650390625,-0.1313360333442688,1.0433578491210938,0.08002334833145142
1767625026805779200,22.357779296875,0.05803219974040985,0.617584764957428,0.41661009192466736
1767625026825858600,22.377858642578126,0.192422553896904,0.35063666105270386,0.6053674817085266
1767625026845842400,22.397842529296874,0.31031954288482666,-0.006719517521560192,0.8772025108337402
1767625026885932500,22.4379326171875,0.3274237811565399,-0.2834414839744568,1.6823228597640991
1767625026906013200,22.45801318359375,0.2871066629886627,-0.1771509200334549,2.1087067127227783
1767625026926020900,22.478020751953125,0.323147714138031,0.013439035043120384,2.3695461750030518
1767625026966103000,22.51810302734375,0.29626965522766113,0.8588765263557434,2.2907447814941406
1767625026986190800,22.53819091796875,0.29016098380088806,0.43188172578811646,2.0567831993103027
1767625027006187500,22.5581875,0.3799581825733185,0.09896016865968704,1.8319848775863647
1767625027046272300,22.598272216796875,0.7110471725463867,-0.8222246170043945,1.4758504629135132
1767625027086364200,22.6383642578125,0.769690215587616,-1.7922786474227905,1.3616186380386353
1767625027126472700,22.67847265625,0.720820963382721,-1.6566665172576904,1.1618657112121582
1767625027166589000,22.7185888671875,0.8411614298820496,-1.6566665172576904,0.9083566069602966
1767625027206682400,22.758682373046874,0.5546656250953674,-1.595579981803894,0.645684540271759
1767625027246765300,22.798765380859376,0.11178833991289139,-1.2553280591964722,0.2620611786842346
1767625027286845200,22.83884521484375,0.16737708449363708,-0.979827880859375,-0.2070833146572113
1767625027326919000,22.8789189453125,0.21319197118282318,-0.8210029006004333,-0.5320636034011841
1767625027367026000,22.91902587890625,0.15332718193531036,-0.8515461683273315,-0.7941248416900635
1767625027387128300,22.93912841796875,0.04642575979232788,-1.0012081861495972,-0.8778133392333984
1767625027407149600,22.959149658203124,-0.04703662544488907,-1.2498302459716797,-0.7348709106445312
1767625027447240200,22.999240234375,0.18814650177955627,-1.1447614431381226,0.20097467303276062
1767625027487311400,23.039311279296875,0.6963863968849182,-1.120937705039978,0.41661009192466736
1767625027527385900,23.0793857421875,0.40683624148368835,-1.1423180103302002,-0.08368854224681854
1767625027567456000,23.1194560546875,-0.21074850857257843,-0.7250970602035522,-0.19364428520202637
1767625027607533800,23.159533935546875,-0.1716531366109848,-0.02321287989616394,-0.30482175946235657
1767625027647621000,23.19962109375,-0.24862214922904968,1.2687671184539795,-1.3298536539077759
1767625027687708000,23.2397080078125,-0.5161811113357544,0.3286454975605011,-1.5528194904327393
1767625027727788500,23.27978857421875,-0.2535090744495392,-0.8497135639190674,-1.083064079284668
1767625027767869000,23.319868896484376,-0.12522737681865692,0.0959058403968811,-1.4666874408721924
1767625027807938600,23.3599384765625,-0.02871066704392433,0.8038986921310425,-1.2767083644866943
1767625027848019700,23.400019775390625,0.07513642311096191,0.23335053026676178,-0.7629706859588623
1767625027888126200,23.440126220703124,0.001832595793530345,0.09712757170200348,-0.5485569834709167
1767625027928228400,23.480228271484375,-0.024434609338641167,-0.02932153269648552,-0.543059229850769
1767625027948326000,23.500325927734377,0.012217304669320583,-0.02015855349600315,-0.6151412725448608
1767625027968336100,23.520336181640626,0,-0.2015855312347412,-0.6621779203414917
1767625028008442400,23.5604423828125,-0.13744467496871948,-0.41111230850219727,-0.7324274182319641
1767625028028539400,23.580539306640624,-0.22296582162380219,-0.34697145223617554,-0.7476990818977356
1767625028048544300,23.600544189453124,-0.21624629199504852,-0.3078760802745819,-0.7898487448692322
1767625028088650200,23.640650146484376,-0.21868975460529327,-0.2785545587539673,-0.6414085030555725
1767625028108740900,23.660740966796876,-0.14966198801994324,-0.2223549485206604,-0.5699372887611389
1767625028128757800,23.6807578125,-0.17531833052635193,-0.182648703455925,-0.4092797040939331
1767625028168862000,23.720862060546875,-0.16554448008537292,-0.2828305959701538,-0.18936823308467865
1767625028208965000,23.760965087890625,-0.19058994948863983,-0.1313360333442688,-0.08124507963657379
1767625028249049300,23.80104931640625,-0.13011430203914642,-0.06291911751031876,0.10323622822761536
1767625028269131300,23.82113134765625,-0.04337143152952194,-0.182648703455925,0.21074850857257843
1767625028289118000,23.841117919921874,0.11484266817569733,-0.5302310585975647,0.36102136969566345
1767625028329193500,23.881193359375,0.23396138846874237,-0.779464066028595,0.5668829679489136
1767625028369289000,23.9212890625,0.009773843921720982,-0.9046914577484131,1.3548991680145264
1767625028389377800,23.941377685546875,-0.06780604273080826,-0.7202101349830627,1.5919147729873657
1767625028409385500,23.961385498046877,-0.17043140530586243,-0.7935139536857605,1.881464958190918
1767625028449501000,24.0015009765625,-0.16982053220272064,-1.0445796251296997,2.328618288040161
1767625028489607400,24.041607421875,0.1111774742603302,-0.8393288254737854,2.313957452774048
1767625028529686300,24.081686279296875,0.5320636034011841,-1.6475036144256592,1.7745635509490967
1767625028569781800,24.12178173828125,0.9456194043159485,-2.3689353466033936,1.38849675655365
1767625028589872600,24.14187255859375,1.1478158235549927,-2.649322509765625,1.216843605041504
1767625028609889000,24.161888916015624,1.359786033630371,-2.965139865875244,1.0378600358963013
1767625028649997600,24.20199755859375,1.8674150705337524,-3.659693717956543,0.7269296646118164
1767625028690089700,24.24208984375,2.0891592502593994,-3.99200439453125,0.35246923565864563
1767625028730175700,24.28217578125,1.5968017578125,-2.9779679775238037,-0.29565876722335815
1767625028770250200,24.322250244140626,1.2357803583145142,-2.651766061782837,-0.27550023794174194
1767625028810353200,24.362353271484373,1.0238101482391357,-2.433687210083008,-0.03298672288656235
1767625028830448400,24.382448486328126,0.9804387092590332,-2.4391849040985107,0.1270599663257599
1767625028850467800,24.4024677734375,0.8662069439888,-2.386650562286377,0.3701843321323395
1767625028890575600,24.44257568359375,0.5864306092262268,-2.0030272006988525,0.39767327904701233
1767625028930671600,24.482671630859375,0.32498031854629517,-1.4899003505706787,-0.19608774781227112
1767625028970765000,24.52276513671875,0.5106833577156067,-1.3096951246261597,-0.6921103000640869
1767625029010834000,24.562833984375,0.7373143434524536,-1.8093829154968262,-0.5992587804794312
1767625029050944300,24.6029443359375,0.8594874143600464,-2.4275784492492676,-0.31520646810531616
1767625029071035400,24.623035400390624,0.8955284357070923,-2.283414363861084,-0.26572638750076294
1767625029091026000,24.64302587890625,0.8643743395805359,-1.9926424026489258,-0.31031954288482666
1767625029131122200,24.6831220703125,0.5650503635406494,-1.380555510520935,-0.6597344875335693
1767625029171203300,24.723203369140624,0.021380282938480377,-0.9254608750343323,-0.7776314616203308
1767625029211286500,24.76328662109375,-0.09712757170200348,-0.9731083512306213,-0.22479841113090515
1767625029231372500,24.78337255859375,-0.27061331272125244,-0.4178318381309509,-0.2730567753314972
1767625029251361500,24.803361572265626,-0.24617868661880493,0.10506882518529892,-0.6389650702476501
1767625029291430400,24.843430419921877,-0.6065891981124878,-0.46853363513946533,-0.9553932547569275
1767625029331512800,24.883512939453126,-0.49235737323760986,-1.633453607559204,-0.6969972252845764
1767625029371592000,24.923592041015624,-0.25961771607398987,-1.6059647798538208,-0.7024950385093689
1767625029411683800,24.963683837890624,-0.34025195240974426,-0.9431759119033813,-0.7776314616203308
1767625029431771600,24.983771728515624,-0.20402899384498596,-0.9718865752220154,-0.788627028465271
1767625029451786200,25.0037861328125,-0.048258353024721146,-0.9358455538749695,-0.7562511563301086
1767625029491861800,25.04386181640625,-0.0555887371301651,-1.3200798034667969,-0.6615670323371887
1767625029531977700,25.083977783203125,-0.1264491081237793,-1.42637038230896,-0.6774495840072632
1767625029552075300,25.1040751953125,-0.10690141469240189,-1.4471397399902344,-0.7012733221054077
1767625029572163300,25.124163330078126,-0.13316862285137177,-1.3726142644882202,-0.6676757335662842
1767625029612268000,25.16426806640625,-0.20341812074184418,-1.1924089193344116,-0.6249151229858398
1767625029652376600,25.20437646484375,-0.2877175211906433,-0.9627236127853394,-0.6835582256317139
1767625029692483300,25.2444833984375,-0.24495697021484375,-0.8362745046615601,-0.8014551997184753
1767625029712579300,25.264579345703126,-0.294437050819397,-0.8491026759147644,-0.7666358947753906
1767625029732573400,25.284573486328124,-0.2590068578720093,-0.7733554244041443,-0.6420193910598755
1767625029772678700,25.3246787109375,-0.1918116807937622,-0.5595525503158569,-0.4001167416572571
1767625029792773400,25.3447734375,-0.1661553531885147,-0.4282165467739105,-0.37690386176109314
1767625029812794600,25.364794677734373,-0.24373523890972137,-0.33536502718925476,-0.33719760179519653
1767625029852909000,25.404908935546874,-0.2272418737411499,-0.13377949595451355,-0.09346238523721695
1767625029893012200,25.44501220703125,-0.20097467303276062,-0.375071257352829,0.2620611786842346
1767625029933098800,25.4850986328125,0.06963863968849182,-0.6151412725448608,0.4147774875164032
1767625029973176800,25.5251767578125,0.04948008432984352,-0.8222246170043945,0.998153805732727
1767625030013279700,25.56527978515625,-0.060475658625364304,-0.8484918475151062,1.6206254959106445
1767625030033367600,25.585367431640623,-0.05253441259264946,-0.9138544201850891,1.9407188892364502
1767625030053390800,25.605390869140624,-0.009773843921720982,-1.1771373748779297,2.180788993835449
1767625030093497900,25.645497802734376,0.22663100063800812,-1.2192870378494263,2.302962064743042
1767625030133592300,25.68559228515625,0.607200026512146,-1.2418889999389648,2.004859685897827
1767625030153680000,25.705679931640624,0.817337691783905,-1.3267992734909058,1.7831156253814697
1767625030173695500,25.725695556640623,1.0109820365905762,-1.4330898523330688,1.5693128108978271
1767625030213779700,25.76577978515625,1.214400053024292,-2.140471935272217,1.2901474237442017
1767625030253891300,25.805891357421874,1.3390166759490967,-2.962085485458374,1.1985175609588623
1767625030294012200,25.84601220703125,1.225395679473877,-2.5528059005737305,0.970054030418396
1767625030334127900,25.8861279296875,0.8784242272377014,-1.968207836151123,0.6664539575576782
1767625030374246400,25.926246337890625,0.5778785347938538,-1.7079792022705078,0.4031710624694824
1767625030414365200,25.966365234375,0.33658674359321594,-1.0739010572433472,0.16065755486488342
1767625030454446300,26.0064462890625,0.11972958594560623,-0.6475171446800232,-0.1466076523065567
1767625030494534400,26.046534423828124,0.021380282938480377,-0.4196644127368927,-0.5662720799446106
1767625030534630400,26.08663037109375,-0.1160643994808197,-0.2974913716316223,-0.9266825914382935
1767625030574724900,26.126724853515626,-0.0708603709936142,-0.5021312236785889,-0.4404338300228119
1767625030614805500,26.166805419921875,0.5216789245605469,-0.24984388053417206,0.8289441466331482
1767625030654888700,26.206888671875,0.7214318513870239,-0.7617489695549011,0.2015855312347412
1767625030674969000,26.226968994140623,0.4599815309047699,-0.7354817390441895,-0.10567969083786011
1767625030694958300,26.246958251953124,0.16371189057826996,-0.7061602473258972,-0.5119050741195679
1767625030715042800,26.267042724609375,-0.303600013256073,-0.523511528968811,-0.96883225440979
1767625030735044900,26.287044921875,-0.12828169763088226,-0.27000242471694946,-0.6719517707824707
1767625030775140900,26.327140869140624,-0.04092797264456749,0.3536909818649292,-0.5552765130996704
1767625030815222800,26.367222900390626,-0.15332718193531036,1.7507398128509521,-1.3335188627243042
1767625030835307500,26.3873076171875,-0.31459560990333557,1.5845844745635986,-1.6694947481155396
1767625030855313700,26.407313720703126,-0.1618792861700058,0.7849618196487427,-1.5418238639831543
1767625030875397600,26.427397705078125,-0.10995574295520782,0.07147123664617538,-1.169806957244873
1767625030895397400,26.4473974609375,0.03176499158143997,-0.04337143152952194,-1.0500773191452026
1767625030935474700,26.487474609375,-0.1368338167667389,0.6786713004112244,-1.2467759847640991
1767625030975555800,26.527555908203126,-0.01038470957428217,1.4269812107086182,-0.9767735004425049
1767625031015647000,26.56764697265625,0.19303341209888458,1.081842303276062,-0.6499606370925903
1767625031055757600,26.607757568359375,0.14538592100143433,0.8619308471679688,-0.7024950385093689
1767625031095854300,26.647854248046876,0.03176499158143997,-0.12461651116609573,-1.1239920854568481
1767625031135947300,26.687947265625,0.08491026610136032,0.05497787147760391,-0.8857545852661133
1767625031156033000,26.708032958984376,0.10873401165008545,0.5601634383201599,-0.8570439219474792
1767625031176021000,26.72802099609375,0.02382374368607998,0.7379252314567566,-0.770301103591919
1767625031216122400,26.768122314453127,-0.1411098688840866,0.7110471725463867,-0.5992587804794312
1767625031236213800,26.7882138671875,-0.1411098688840866,0.6921103000640869,-0.5778785347938538
1767625031256231200,26.808231201171875,-0.1258382350206375,0.7250970602035522,-0.6004805564880371
1767625031296341500,26.848341552734375,-0.04153883829712868,0.7000515460968018,-0.5100724697113037
1767625031316433200,26.86843310546875,-0.003054326167330146,0.7275404930114746,-0.38240164518356323
1767625031336445000,26.88844482421875,0.02871066704392433,0.7568620443344116,-0.2785545587539673
1767625031376551700,26.9285517578125,-0.022602014243602753,0.8356636762619019,-0.14905111491680145
1767625031396649200,26.948649169921875,-0.06902777403593063,0.9059131741523743,-0.08796459436416626
1767625031416638700,26.968638671875,-0.08368854224681854,1.0323622226715088,-0.04642575979232788
1767625031456743200,27.0087431640625,0.20402899384498596,0.7605272531509399,0.2932153046131134
1767625031496834600,27.04883447265625,0.39584067463874817,0.44776421785354614,0.7513642311096191
1767625031516925400,27.068925537109376,0.37629300355911255,0.18387043476104736,1.187522053718567
1767625031536931300,27.088931396484377,0.37140607833862305,0.13866640627384186,1.7146987915039062
1767625031577022700,27.129022705078125,0.23396138846874237,0.42088615894317627,2.47094988822937
1767625031617113300,27.16911328125,0.1111774742603302,1.6896532773971558,2.6566529273986816
1767625031657196800,27.20919677734375,0.03298672288656235,0.6499606370925903,2.101987361907959
1767625031697278200,27.2492783203125,0.4043927788734436,-0.29138273000717163,1.6420058012008667
1767625031717366500,27.269366455078124,0.3732386529445648,-1.0250319242477417,1.5302174091339111
1767625031737378000,27.2893779296875,0.2535090744495392,-1.1759155988693237,1.5247195959091187
1767625031777468700,27.32946875,0.25961771607398987,-0.7898487448692322,1.36955988407135
1767625031817559800,27.369559814453126,0.09285151958465576,-0.3078760802745819,0.9040805697441101
1767625031857648000,27.409648193359374,-0.2785545587539673,-0.06291911751031876,0.5094616413116455
1767625031897714700,27.449714599609376,-0.6420193910598755,0.31031954288482666,-0.1270599663257599
1767625031937786400,27.489786376953123,-0.5180137157440186,0.6731734871864319,-0.6829473376274109
1767625031957870800,27.509870849609374,-0.3543018400669098,0.7629706859588623,-0.8313875794410706
1767625031977885200,27.52988525390625,-0.19120082259178162,0.7605272531509399,-0.901637077331543
1767625032017976000,27.56997607421875,0.11484266817569733,0.513737678527832,-1.0036516189575195
1767625032058097700,27.61009765625,0.44715335965156555,-0.07391469180583954,-0.4764748811721802
1767625032098172000,27.650171875,0.3799581825733185,-0.17348572611808777,0.49357911944389343
1767625032138241300,27.6902412109375,-0.036041051149368286,-0.012828170321881771,0.056810468435287476
1767625032178326300,27.730326171875,-0.30604347586631775,-0.3646865487098694,-0.8093964457511902
1767625032218416000,27.770416015625,-0.16859880089759827,-0.031154127791523933,-0.9993755221366882
1767625032258505700,27.810505615234376,0.5681046843528748,0.8851437568664551,-0.6524040699005127
1767625032298600400,27.850600341796873,-0.15515977144241333,1.6615535020828247,-0.8411614298820496
1767625032338691000,27.890691162109373,-0.2828305959701538,1.5735888481140137,-1.4282029867172241
1767625032378762000,27.930761962890625,0.13500121235847473,0.5668829679489136,-0.846659243106842
1767625032418839300,27.97083935546875,0.44165557622909546,1.310916781425476,-0.79840087890625
1767625032458937600,28.0109375,0.4948008358478546,2.136195659637451,-1.0403034687042236
1767625032499022300,28.051022216796873,0.20036379992961884,1.9614882469177246,-0.7293730974197388
1767625032539115800,28.09111572265625,0.08368854224681854,1.955379605293274,-0.5729916095733643
1767625032579214600,28.131214599609375,0.18814650177955627,1.6633861064910889,-0.5803219676017761
1767625032619299800,28.1712998046875,0.24190263450145721,1.4721852540969849,-0.5082398653030396
1767625032639391700,28.191391845703127,0.26572638750076294,1.482569932937622,-0.5320636034011841
1767625032659403300,28.2114033203125,0.18997909128665924,1.5711454153060913,-0.49846604466438293
1767625032679494400,28.231494384765625,0.07208210229873657,1.5864170789718628,-0.4294382631778717
1767625032699509000,28.251509033203124,0.01038470957428217,1.5937473773956299,-0.3732386529445648
1767625032719603000,28.27160302734375,-0.06536258012056351,1.4703526496887207,-0.37140607833862305
1767625032739616300,28.2916162109375,-0.1007927656173706,1.3640620708465576,-0.39584067463874817
1767625032779718400,28.331718505859374,-0.1264491081237793,1.2247848510742188,-0.37262779474258423
1767625032819813400,28.3718134765625,0.0012217304902151227,1.2192870378494263,-0.242513507604599
1767625032839907300,28.3919072265625,0.02626720629632473,1.2412781715393066,-0.182648703455925
1767625032859898400,28.4118984375,0.010995574295520782,1.218676209449768,-0.13561208546161652
1767625032900012800,28.4520126953125,-0.05375614017248154,1.2669345140457153,-0.16249015927314758
1767625032940131000,28.492131103515625,-0.05864306539297104,1.2999212741851807,0.06536258012056351
1767625032980206800,28.532206787109374,0.3927863538265228,0.9584475755691528,0.4092797040939331
1767625033020286700,28.57228662109375,0.3335324227809906,0.7476990818977356,1.2779301404953003
1767625033060365300,28.612365234375,0.18020524084568024,1.06657075881958,2.3652701377868652
1767625033100432000,28.652431884765626,0.09224065393209457,2.020742177963257,2.805093288421631
1767625033120511200,28.67251123046875,0.10018189996480942,2.7006351947784424,2.679865837097168
1767625033140508400,28.69250830078125,0.15027284622192383,2.258979558944702,2.39825701713562
1767625033160585500,28.71258544921875,0.1111774742603302,1.4764612913131714,2.116647958755493
1767625033180585500,28.73258544921875,0.08857546001672745,0.799011766910553,1.9535470008850098
1767625033220673000,28.772673095703126,-0.05742133408784866,-0.4893030524253845,1.6493362188339233
1767625033260772900,28.81277294921875,-0.059864792972803116,-1.1746938228607178,1.4599679708480835
1767625033300872200,28.8528720703125,0.3604104816913605,-0.14416420459747314,0.8148942589759827
1767625033340954600,28.89295458984375,0.5497786998748779,-0.5729916095733643,0.6212499737739563
1767625033381036500,28.93303662109375,-0.029932396486401558,0.18875735998153687,-0.3237585723400116
1767625033421119200,28.973119140625,-0.45631635189056396,0.6212499737739563,-0.8839219808578491
1767625033461197600,29.013197509765625,-0.48685958981513977,0.7275404930114746,-1.0378600358963013
1767625033501290500,29.05329052734375,-0.41661009192466736,0.4447098970413208,-1.0708467960357666
1767625033541373000,29.093373046875,-0.1459967941045761,-0.35185837745666504,-0.07941248267889023
1767625033581440800,29.133440673828126,0.3280346393585205,-0.4129449129104614,1.0170906782150269
1767625033621513200,29.17351318359375,0.059864792972803116,-0.11362093687057495,0.06902777403593063
1767625033661600800,29.213600830078125,-0.3194825351238251,-0.2742784917354584,-0.6768386960029602
1767625033701678600,29.2536787109375,0.27000242471694946,0.5876523852348328,-0.5387831330299377
1767625033741749200,29.293749267578125,-0.19853121042251587,1.737911581993103,-1.2150110006332397
1767625033781823700,29.33382373046875,-0.4050036668777466,1.6218472719192505,-1.5063936710357666
1767625033821898000,29.37389794921875,-0.15332718193531036,0.41233405470848083,-1.1007791757583618
1767625033861984500,29.413984619140624,0.13255776464939117,0.6438519954681396,-1.1362093687057495
1767625033882069200,29.4340693359375,0.1716531366109848,1.103833556175232,-1.0806206464767456
1767625033902076000,29.454075927734376,0.15454891324043274,1.6572774648666382,-1.006095051765442
1767625033942176300,29.49417626953125,0.16065755486488342,1.578475832939148,-0.7354817390441895
1767625033982285800,29.534285888671874,0.04153883829712868,1.2968668937683105,-0.4954117238521576
1767625034022381000,29.574381103515623,0.04764748737215996,1.3292428255081177,-0.48685958981513977
1767625034062458000,29.6144580078125,0.00427605677396059,0.4740314185619354,-0.7122688889503479
1767625034102567400,29.6545673828125,-0.00427605677396059,0.5186246037483215,-0.7965682744979858
1767625034122655200,29.6746552734375,-0.09896016865968704,0.5259549617767334,-0.7831292152404785
1767625034142673700,29.694673583984375,-0.1973094791173935,0.5919284224510193,-0.7586946487426758
1767625034182776000,29.734776123046874,-0.2632829248905182,0.6212499737739563,-0.6939429044723511
1767625034202867000,29.754866943359374,-0.2822197377681732,0.5833762884140015,-0.6304129362106323
1767625034222882300,29.77488232421875,-0.2742784917354584,0.6450737118721008,-0.4966334402561188
1767625034262980900,29.81498095703125,-0.10751228034496307,0.608421802520752,-0.25045475363731384
1767625034303057400,29.855057373046876,-0.15943582355976105,0.6389650702476501,-0.09285151958465576
1767625034343155700,29.89515576171875,-0.3341432809829712,0.8203920125961304,0.04948008432984352
1767625034363243300,29.9152431640625,-0.24434609711170197,0.6023131608963013,0.2376265823841095
1767625034383243000,29.935242919921876,-0.028099801391363144,0.3695734739303589,0.35552358627319336
1767625034423320800,29.97532080078125,0.23518311977386475,0.07452555745840073,0.901637077331543
1767625034463413200,30.015413330078125,0.28527405858039856,0.2669481039047241,1.7904460430145264
1767625034503500300,30.055500244140624,0.12034045159816742,0.23457226157188416,2.479501962661743
1767625034543563800,30.095563720703126,0.2571742534637451,1.064738154411316,2.4917192459106445
1767625034583639600,30.1356396484375,0.5082398653030396,0.1875356286764145,1.8710802793502808
1767625034623716400,30.17571630859375,0.8002334833145142,-0.9077457785606384,1.6291775703430176
1767625034663795000,30.215794921875,0.9126327037811279,-1.7537940740585327,1.4007140398025513
1767625034703892200,30.255892333984374,0.921184778213501,-2.0189096927642822,1.2376129627227783
1767625034743991300,30.2959912109375,0.9578366875648499,-1.9492709636688232,0.7812966704368591
1767625034784067800,30.33606787109375,0.7104362845420837,-1.7537940740585327,0.31520646810531616
1767625034824140300,30.376140380859376,0.28038713335990906,-0.9321803450584412,-0.2871066629886627
1767625034844218400,30.39621826171875,0.1459967941045761,-0.6829473376274109,-0.5002986192703247
1767625034864216300,30.41621630859375,0.0757472887635231,-0.6841690540313721,-0.6249151229858398
1767625034904286000,30.456285888671875,-0.14049901068210602,-0.816726803779602,-0.8833111524581909
1767625034944366800,30.496366943359376,-0.2687807083129883,-1.0427470207214355,-0.9388998746871948
1767625034984459000,30.536458984375,-0.10201449692249298,-1.2162326574325562,-0.1411098688840866
1767625035024522200,30.576522216796874,0.5345070958137512,-0.5125159621238708,0.6548475623130798
1767625035064604000,30.61660400390625,0.6719517707824707,-0.7519751191139221,0.08124507963657379
1767625035084682000,30.636681884765625,0.27977627515792847,-0.8436049222946167,-0.21868975460529327
1767625035104685800,30.656685791015626,-0.10018189996480942,-1.0005972385406494,-0.5626068711280823
1767625035124765000,30.676764892578124,0.01710422709584236,-1.1869112253189087,-0.2474004179239273
1767625035144759300,30.69675927734375,0.20830504596233368,-0.9046914577484131,-0.001832595793530345
1767625035184839700,30.736839599609375,-0.18997909128665924,0.6511823534965515,-1.0897835493087769
1767625035224913200,30.7769130859375,-0.3903428912162781,0.523511528968811,-1.519832730293274
1767625035264975000,30.81697509765625,-0.21807889640331268,-1.2180652618408203,-0.4648684561252594
1767625035305045000,30.857044921875,-0.07819075137376785,-0.7996225953102112,-1.1545352935791016
1767625035345129000,30.89712890625,-0.2669481039047241,0.21563543379306793,-1.4184291362762451
1767625035385213000,30.937212890625,-0.1215621829032898,-0.28649580478668213,-1.0812314748764038
1767625035425319400,30.9773193359375,-0.17837265133857727,-0.23029619455337524,-1.017701506614685
1767625035465412400,31.017412353515624,-0.03481931984424591,-0.4593706727027893,-0.7971791625022888
1767625035505488600,31.057488525390625,-0.11728613078594208,-0.617584764957428,-0.7513642311096191
1767625035545583900,31.097583984375,-0.23090706765651703,-0.4495968222618103,-0.9352346658706665
1767625035585672400,31.13767236328125,-0.24007004499435425,-0.5613851547241211,-0.949895441532135
1767625035605761300,31.15776123046875,-0.22968533635139465,-0.46547931432724,-0.8857545852661133
1767625035625771800,31.177771728515626,-0.22968533635139465,-0.3689626157283783,-0.8594874143600464
1767625035665883600,31.217883544921875,-0.14049901068210602,-0.04092797264456749,-0.475253164768219
1767625035705988600,31.257988525390626,-0.2028072625398636,0.08857546001672745,-0.3084869384765625
1767625035746075000,31.298074951171873,-0.242513507604599,0.15393804013729095,-0.21930062770843506
1767625035786169600,31.338169677734374,-0.12339477986097336,-0.07880161702632904,0.22602014243602753
1767625035826262800,31.3782626953125,0.2370157092809677,-0.5296201705932617,0.5308418869972229
1767625035866348300,31.418348388671873,0.22846360504627228,-0.5705481171607971,1.3927727937698364
1767625035906443300,31.458443359375,0.009162978269159794,-0.19425514340400696,1.9950858354568481
1767625035946544000,31.498544189453124,-0.018936822190880775,-0.17592918872833252,2.3707680702209473
1767625035986613200,31.53861328125,0.34758231043815613,-0.7275404930114746,2.1392500400543213
1767625036026694000,31.57869384765625,0.7874053120613098,-1.3640620708465576,1.6975945234298706
1767625036066827800,31.618827880859374,0.93095862865448,-2.1985039710998535,1.4343116283416748
1767625036106915600,31.65891552734375,1.0751228332519531,-2.395813465118408,1.197295904159546
1767625036147012400,31.699012451171875,1.205847978591919,-2.442850112915039,0.8790351152420044
1767625036187106000,31.73910595703125,1.0910053253173828,-2.132530689239502,0.5265658497810364
1767625036227177200,31.77917724609375,0.778853178024292,-1.8466455936431885,0.16432274878025055
1767625036267271700,31.819271728515623,0.4893030524253845,-1.4996742010116577,-0.048258353024721146
1767625036307346200,31.85934619140625,0.06169738993048668,-1.2260065078735352,-0.12278391420841217
1767625036347412200,31.899412109375,-0.12339477986097336,-0.9871582388877869,-0.3982841372489929
1767625036387499800,31.939499755859377,-0.2877175211906433,-0.8155050873756409,-0.7202101349830627
1767625036427589400,31.97958935546875,-0.24373523890972137,-0.8662069439888,-0.1722639948129654
1767625036467660500,32.01966064453125,0.5516113042831421,-0.3885102868080139,0.7330383062362671
1767625036507741400,32.059741455078125,0.6010913848876953,-0.7067710757255554,0.05192354694008827
1767625036547828000,32.09982788085937,-0.08918632566928864,-0.8747590184211731,-0.39156460762023926
1767625036587906300,32.13990625,0.14966198801994324,-0.5455026626586914,-0.33169981837272644
1767625036627986000,32.17998583984375,-0.2974913716316223,0.9853256344795227,-1.0690141916275024
1767625036668060200,32.22006005859375,-0.46547931432724,1.0726794004440308,-1.4862351417541504
1767625036688144400,32.24014428710937,-0.32009339332580566,0.2474004179239273,-1.3359622955322266
1767625036708138200,32.26013818359375,-0.23273965716362,-0.40744712948799133,-1.1423180103302002
1767625036748225800,32.300225830078126,0.15271630883216858,-0.03726277872920036,-1.3274102210998535
1767625036788312300,32.340312255859374,0.0006108652451075613,1.0671815872192383,-1.4074335098266602
1767625036828402400,32.38040234375,0.05803219974040985,0.7202101349830627,-0.9425650835037231
1767625036868510000,32.42051000976563,0.08002334833145142,0.28955012559890747,-0.5839871764183044
1767625036908622000,32.4606220703125,0.08124507963657379,0.2028072625398636,-0.7079927921295166
1767625036948698600,32.50069873046875,0.1007927656173706,0.5613851547241211,-0.7122688889503479
1767625036988793000,32.54079296875,-0.1313360333442688,0.1814269721508026,-0.8961393237113953
1767625037008882000,32.5608818359375,-0.2535090744495392,0.01710422709584236,-1.0085384845733643
1767625037028891000,32.580890869140624,-0.26633724570274353,0.012828170321881771,-0.9871582388877869
1767625037068967200,32.62096728515625,-0.24923302233219147,0.19914206862449646,-0.8002334833145142
1767625037109070300,32.6610703125,-0.1618792861700058,0.30115658044815063,-0.5015203952789307
1767625037149175600,32.70117553710938,-0.0659734457731247,0.3396410644054413,-0.36224308609962463
1767625037189255200,32.74125512695313,-0.11850785464048386,0.5015203952789307,-0.16920967400074005
1767625037229359900,32.78135986328125,-0.11239920556545258,0.6499606370925903,0.0507018156349659
1767625037249441500,32.80144165039062,0.13927727937698364,0.2773328125476837,0.19608774781227112
1767625037269444000,32.82144409179688,0.3194825351238251,0.1062905490398407,0.37690386176109314
1767625037309513700,32.861513671875,0.4043927788734436,-0.09407325088977814,1.2394455671310425
1767625037349586200,32.901586181640624,0.303600013256073,0.2583959996700287,2.0390682220458984
1767625037389672400,32.94167236328125,0.17348572611808777,0.3433062732219696,2.3744332790374756
1767625037429754600,32.98175463867187,0.3384193480014801,0.4948008358478546,2.1392500400543213
1767625037469824300,33.02182421875,0.6450737118721008,-0.3286454975605011,1.8167132139205933
1767625037509936000,33.06193603515625,0.6890559792518616,-1.712866187095642,1.6505578756332397
1767625037550043100,33.10204321289063,0.607810914516449,-1.9272798299789429,1.3964380025863647
1767625037590146800,33.14214672851563,0.6713408827781677,-1.5534303188323975,1.2027937173843384
1767625037610240800,33.16224072265625,0.7110471725463867,-1.4031574726104736,1.0256427526474
1767625037630251000,33.1822509765625,0.6591235995292664,-1.2565498352050781,0.8344419002532959
1767625037670323700,33.22232373046875,0.2376265823841095,-0.7904596328735352,0.42210787534713745
1767625037710407000,33.26240698242187,-0.16249015927314758,-0.5326744914054871,0.030543262138962746
1767625037730489000,33.28248901367188,-0.2431243658065796,-0.31459560990333557,-0.16065755486488342
1767625037750491400,33.302491455078126,-0.24862214922904968,-0.14416420459747314,-0.37079519033432007
1767625037770572000,33.322572021484376,-0.20463985204696655,-0.05864306539297104,-0.6401867866516113
1767625037790575900,33.34257592773437,-0.18570303916931152,0.0507018156349659,-0.827722430229187
1767625037810662400,33.362662353515624,-0.08918632566928864,0.1459967941045761,-0.8045095205307007
1767625037830658600,33.38265844726563,0.021380282938480377,0.056810468435287476,-0.7507534027099609
1767625037870751500,33.42275146484375,0.21502456068992615,-0.23884831368923187,-0.17470745742321014
1767625037910824700,33.46282470703125,0.6090326309204102,-0.543059229850769,0.5650503635406494
1767625037950900200,33.50290014648437,0.35063666105270386,-1.1044443845748901,-0.009773843921720982
1767625037970978300,33.52297827148438,-0.0708603709936142,-0.6047565937042236,-0.5167919993400574
1767625037990981000,33.54298120117188,-0.3084869384765625,-0.3396410644054413,-0.645684540271759
1767625038031056100,33.58305615234375,-0.12461651116609573,0.22540926933288574,-0.33658674359321594
1767625038071137500,33.62313745117188,-0.09957103431224823,1.7519614696502686,-1.2455542087554932
1767625038111222800,33.66322290039062,-0.36529740691185,0.6963863968849182,-1.4892895221710205
1767625038151299300,33.70329931640625,-0.17592918872833252,-0.11178833991289139,-1.027475357055664
1767625038191382500,33.74338256835937,0.1716531366109848,0.827722430229187,-1.3145819902420044
1767625038231471900,33.783471923828124,0.012217304669320583,1.7910568714141846,-1.2663236856460571
1767625038271577900,33.823577880859375,-0.08918632566928864,1.3933836221694946,-0.8521569967269897
1767625038311685400,33.863685302734375,-0.11850785464048386,0.8246681094169617,-0.789237916469574
1767625038351786500,33.90378637695313,0.016493361443281174,0.16432274878025055,-0.9584475755691528
1767625038391877000,33.94387719726563,0.1661553531885147,0.7415903806686401,-0.6249151229858398
1767625038431968800,33.98396875,-0.02382374368607998,0.4331034719944,-0.7257078886032104
1767625038452054800,34.0040546875,-0.16982053220272064,0.13805554807186127,-0.8356636762619019
1767625038472065800,34.024065673828126,-0.22052235901355743,0.09040805697441101,-0.8668177723884583
1767625038512166100,34.06416625976563,-0.24190263450145721,0.23457226157188416,-0.7727445363998413
1767625038552265700,34.104265625,-0.24678955972194672,0.34086281061172485,-0.53328537940979
1767625038592364000,34.144364013671876,-0.19792033731937408,0.29626965522766113,-0.4184426963329315
1767625038632438300,34.184438232421876,-0.1160643994808197,0.5968153476715088,-0.36163222789764404
1767625038672537600,34.22453759765625,-0.17592918872833252,0.8246681094169617,-0.2064724564552307
1767625038692627700,34.244627685546874,-0.21868975460529327,0.6737843751907349,-0.021991148591041565
1767625038712628200,34.26462817382812,0.014049900695681572,0.2217440903186798,0.13805554807186127
1767625038732708600,34.28470849609375,0.182648703455925,0.09834930300712585,0.31459560990333557
1767625038752701200,34.304701171875,0.17043140530586243,-0.07880161702632904,0.6206390857696533
1767625038792795400,34.34479541015625,0.18814650177955627,-0.10567969083786011,1.4624114036560059
1767625038832885000,34.384885009765625,0.048258353024721146,0.33292156457901,2.1642956733703613
1767625038872957200,34.424957275390625,0.005497787147760391,0.31093040108680725,2.4837779998779297
1767625038913046800,34.465046875,0.2742784917354584,0.00427605677396059,2.2382102012634277
1767625038953132000,34.50513208007813,0.5265658497810364,-0.7910705208778381,1.7470746040344238
1767625038993225700,34.545225830078124,0.6762278079986572,-1.7739527225494385,1.5821410417556763
1767625039033333000,34.5853330078125,0.6255260109901428,-1.9694294929504395,1.2638801336288452
1767625039073446100,34.62544604492187,0.588874101638794,-2.0170769691467285,1.0800096988677979
1767625039113534500,34.66553442382813,0.39584067463874817,-1.63467538356781,0.720820963382721
1767625039153616100,34.7056162109375,0.12400564551353455,-1.1362093687057495,0.21135938167572021
1767625039173698300,34.7256982421875,0.05314527451992035,-1.0268645286560059,-0.012828170321881771
1767625039193702400,34.745702392578124,0.00855211354792118,-0.988379955291748,-0.182648703455925
1767625039233791200,34.785791259765624,0.04459316283464432,-0.8148942589759827,-0.5448917746543884
1767625039253879300,34.80587939453125,0.04703662544488907,-0.6939429044723511,-0.7000515460968018
1767625039273891300,34.825891357421874,0.02871066704392433,-0.6921103000640869,-0.6487388610839844
1767625039313984800,34.86598486328125,0.028099801391363144,-1.091616153717041,-0.2370157092809677
1767625039354055000,34.906054931640625,0.3194825351238251,-0.8442157506942749,0.5510004758834839
1767625039394134000,34.94613403320312,0.7073819637298584,-0.6505714654922485,0.42638394236564636
1767625039414229800,34.966229736328124,0.6719517707824707,-0.6120869517326355,0.07513642311096191
1767625039434232300,34.986232421875,0.5589417219161987,-0.7678576111793518,-0.19608774781227112
1767625039474304500,35.02630444335937,-0.042760565876960754,-0.7055493593215942,-0.6157521605491638
1767625039514384600,35.06638452148437,0.19364428520202637,-0.21074850857257843,-0.27611109614372253
1767625039554464500,35.106464599609374,-0.40194934606552124,1.1056660413742065,-1.047023057937622
1767625039594540300,35.14654028320312,-0.2871066629886627,0.588263213634491,-1.4147639274597168
1767625039634634800,35.186634765625,-0.3885102868080139,-0.7336491346359253,-1.1746938228607178
1767625039674744300,35.226744384765624,0.0757472887635231,-0.6994407176971436,-1.3005321025848389
1767625039694841900,35.246841796875,0.16859880089759827,-0.47830748558044434,-1.3213015794754028
1767625039714848000,35.26684790039062,0.0708603709936142,0.00427605677396059,-1.2699888944625854
1767625039754956000,35.3069560546875,0.10995574295520782,0.2620611786842346,-0.7544185519218445
1767625039795062300,35.34706225585938,0.1111774742603302,0.21319197118282318,-0.4080579876899719
1767625039815154400,35.36715454101562,0.04764748737215996,0.1918116807937622,-0.3433062732219696
1767625039835141000,35.38714111328125,-0.01038470957428217,0.08735372871160507,-0.34025195240974426
1767625039875235800,35.42723583984375,-0.02382374368607998,-0.37262779474258423,-0.48869219422340393
1767625039915335000,35.4673349609375,-0.07941248267889023,-0.7183775305747986,-0.836885392665863
1767625039955438600,35.5074384765625,-0.1618792861700058,-0.827722430229187,-1.0036516189575195
1767625039975534600,35.52753466796875,-0.18081611394882202,-0.7525860071182251,-0.9364564418792725
1767625039995554000,35.54755395507812,-0.1966986060142517,-0.5894849896430969,-0.7464773058891296
1767625040015639600,35.5676396484375,-0.2174680233001709,-0.4086688458919525,-0.5742133259773254
1767625040035652400,35.58765234375,-0.1820378452539444,-0.22357667982578278,-0.47219884395599365
1767625040055747300,35.60774731445313,-0.19058994948863983,-0.15943582355976105,-0.4502076804637909
1767625040075750700,35.62775073242187,-0.21930062770843506,-0.19975294172763824,-0.4453207552433014
1767625040115851500,35.6678515625,-0.09773843735456467,-0.17898350954055786,-0.44104471802711487
1767625040135944000,35.68794384765625,-0.09651670604944229,-0.025656340643763542,-0.3927863538265228
1767625040155959000,35.707958984375,-0.1111774742603302,0.10690141469240189,-0.3481931984424591
1767625040196065300,35.74806518554688,-0.18325957655906677,0.2926044464111328,-0.20525072515010834
1767625040236160800,35.788160888671875,0.03481931984424591,-0.0006108652451075613,0.04398229718208313
1767625040276232400,35.828232421875,0.10323622822761536,-0.4550946056842804,0.4440990388393402
1767625040316302300,35.86830224609375,0.009162978269159794,-0.5461135506629944,1.169806957244873
1767625040356402400,35.90840234375,-0.1612684279680252,-0.6389650702476501,1.8099937438964844
1767625040396515300,35.94851538085938,0.006719517521560192,-0.5271766781806946,2.22477126121521
1767625040436625000,35.988625,0.251676470041275,-0.4550946056842804,2.1893410682678223
1767625040476706800,36.02870678710938,0.46547931432724,-0.3781255781650543,1.9089539051055908
1767625040516806000,36.068805908203124,0.7073819637298584,-1.1117748022079468,1.405600905418396
1767625040556885800,36.1088857421875,0.9138544201850891,-1.9364428520202637,1.130711555480957
1767625040597052400,36.149052490234375,1.0824532508850098,-2.310903310775757,0.9743300676345825
1767625040617145300,36.16914526367187,1.0958921909332275,-2.20583438873291,0.8784242272377014
1767625040637161500,36.18916137695312,1.0500773191452026,-1.9932533502578735,0.7996225953102112
1767625040677266000,36.229265869140626,0.7031059265136719,-1.6267341375350952,0.6499606370925903
1767625040697360100,36.24936010742187,0.4893030524253845,-1.5106697082519531,0.5180137157440186
1767625040717374700,36.269374755859374,0.35185837745666504,-1.3646728992462158,0.36651915311813354
1767625040757457000,36.309456787109376,0.0708603709936142,-0.9370672702789307,0.039706241339445114
1767625040797530400,36.3495302734375,0.05009094998240471,-0.7385360598564148,-0.2528982162475586
1767625040837623300,36.389623291015624,0.02687807008624077,-0.6041457056999207,-0.5393940210342407
1767625040877723000,36.42972290039062,-0.0806342139840126,-0.6120869517326355,-0.484416127204895
1767625040917819400,36.4698193359375,0.08124507963657379,-0.5021312236785889,-0.04703662544488907
1767625040957900800,36.50990087890625,0.46364670991897583,-0.33292156457901,0.6053674817085266
1767625040997984000,36.54998388671875,0.5601634383201599,-0.5186246037483215,0.2632829248905182
1767625041038060300,36.59006030273437,0.29077184200286865,-0.5363397002220154,-0.3597996234893799
1767625041078145500,36.6301455078125,-0.05192354694008827,-0.5424483418464661,-0.08857546001672745
1767625041118300400,36.67030053710938,-0.21868975460529327,0.34208452701568604,-0.5082398653030396
1767625041158380800,36.710380859375,-0.33475416898727417,1.4147639274597168,-1.5149458646774292
1767625041198473700,36.7504736328125,-0.06108652427792549,0.29138273000717163,-1.356731653213501
1767625041238557400,36.79055737304687,-0.05192354694008827,-0.4434881806373596,-1.0097602605819702
1767625041278635500,36.830635498046874,-0.2223549485206604,0.7318165898323059,-1.197295904159546
1767625041318729700,36.87072973632812,-0.1258382350206375,0.9480628371238708,-0.9816604256629944
1767625041358835500,36.91083544921875,0.07391469180583954,0.39645153284072876,-0.6450737118721008
1767625041398946300,36.9509462890625,0.13439035415649414,0.24007004499435425,-0.4911356568336487
1767625041439064800,36.99106494140625,0.11301007121801376,0.2981022298336029,-0.5051855444908142
1767625041479188000,37.03118798828125,0.08307767659425735,0.4001167416572571,-0.5650503635406494
1767625041519288600,37.07128857421875,0.04948008432984352,0.2889392673969269,-0.6493497490882874
1767625041559405800,37.11140576171875,-0.05192354694008827,0.07452555745840073,-0.7733554244041443
1767625041579503400,37.13150341796875,-0.08429940044879913,0.13377949595451355,-0.7867944240570068
1767625041599527200,37.151527099609375,-0.11056660860776901,0.1722639948129654,-0.7562511563301086
1767625041639642600,37.191642578125,-0.15271630883216858,0.21441370248794556,-0.6615670323371887
1767625041679754000,37.23175390625,-0.16310101747512817,0.24923302233219147,-0.675006091594696
1767625041719863800,37.27186376953125,-0.18020524084568024,0.3341432809829712,-0.5051855444908142
1767625041739960800,37.2919609375,-0.16798794269561768,0.3897320330142975,-0.4043927788734436
1767625041759954400,37.31195434570313,-0.1875356286764145,0.37568211555480957,-0.35552358627319336
1767625041780055000,37.33205493164063,-0.21441370248794556,0.4288274049758911,-0.30115658044815063
1767625041800070000,37.35206982421875,-0.22052235901355743,0.5198463201522827,-0.23335053026676178
1767625041840182800,37.39218286132812,-0.08124507963657379,0.2834414839744568,-0.05925392732024193
1767625041880264700,37.4322646484375,0.033597588539123535,-0.0959058403968811,0.18875735998153687
1767625041920359700,37.472359619140626,0.059864792972803116,-0.24862214922904968,0.7031059265136719
1767625041960460000,37.5124599609375,0.1411098688840866,0.03420845419168472,1.3267992734909058
1767625042000533500,37.552533447265624,0.22663100063800812,-0.018325956538319588,2.046398639678955
1767625042040631300,37.59263134765625,0.4434881806373596,0.251676470041275,2.3457224369049072
1767625042080723500,37.63272338867188,0.6230825781822205,0.48380526900291443,2.0219640731811523
1767625042100804400,37.65280444335937,0.6322455406188965,0.3597996234893799,1.7006487846374512
1767625042120799700,37.6727998046875,0.6090326309204102,-0.2871066629886627,1.5839735269546509
1767625042160882200,37.712882080078124,0.6377432942390442,-1.140485405921936,1.3616186380386353
1767625042200963300,37.75296337890625,0.6621779203414917,-1.6279559135437012,1.2883148193359375
1767625042241029600,37.79302954101563,0.7141014933586121,-1.4269812107086182,1.014647126197815
1767625042281122000,37.8331220703125,0.41722095012664795,-1.2198978662490845,0.6243042945861816
1767625042321194500,37.87319458007813,-0.07880161702632904,-0.6505714654922485,0.10506882518529892
1767625042361263400,37.91326342773438,-0.3194825351238251,-0.16310101747512817,-0.3225368559360504
1767625042401341400,37.95334155273437,-0.28527405858039856,-0.015271631069481373,-0.6591235995292664
1767625042441428500,37.99342846679688,-0.17470745742321014,-0.014049900695681572,-0.7971791625022888
1767625042481492700,38.03349267578125,-0.06352998316287994,-0.28649580478668213,-0.5516113042831421
1767625042521571800,38.07357177734375,0.21930062770843506,-0.4709770977497101,0.4392121136188507
1767625042561655600,38.113655517578124,0.6444628238677979,-0.5283984541893005,0.7397578358650208
1767625042601728500,38.153728515625,0.2736676335334778,-0.5845980644226074,-0.01466076634824276
1767625042641804000,38.193803955078124,-0.2834414839744568,-1.015868902206421,-0.49785518646240234
1767625042681875500,38.23387548828125,0.13866640627384186,-0.3274237811565399,-0.14538592100143433
1767625042721948400,38.27394848632812,-0.2993239760398865,1.2229522466659546,-0.8509352803230286
1767625042762028000,38.31402807617187,-0.6395758986473083,1.4892895221710205,-1.6682729721069336
1767625042802117400,38.354117431640624,-0.21563543379306793,-0.3952298164367676,-1.0616837739944458
1767625042842192000,38.39419189453125,0.031154127791523933,-0.7867944240570068,-1.1484266519546509
1767625042882278100,38.43427807617188,-0.16249015927314758,0.07941248267889023,-1.1734721660614014
1767625042922365000,38.47436499023438,-0.00366519158706069,0.8252789378166199,-1.0012081861495972
1767625042962436000,38.51443603515625,0.060475658625364304,0.5943718552589417,-0.5766568183898926
1767625043002542000,38.5545419921875,-0.025656340643763542,0.19792033731937408,-0.46242499351501465
1767625043042659600,38.59465966796875,-0.02626720629632473,-0.10262536257505417,-0.4764748811721802
1767625043082754600,38.63475463867187,-0.08674286305904388,-0.20830504596233368,-0.6860016584396362
1767625043102844000,38.65484399414063,-0.1612684279680252,-0.22479841113090515,-0.778853178024292
1767625043122857500,38.674857421875,-0.23640485107898712,-0.304210901260376,-0.8863654732704163
1767625043162953500,38.71495336914062,-0.2119702398777008,-0.4404338300228119,-0.9340129494667053
1767625043203028000,38.755028076171875,-0.12339477986097336,-0.1667662113904953,-0.5009095072746277
1767625043243122200,38.7951220703125,-0.08674286305904388,-0.0024434609804302454,-0.16065755486488342
1767625043263206100,38.8152060546875,-0.12095131725072861,-0.12461651116609573,-0.152105450630188
1767625043283213600,38.835213623046876,-0.2125810980796814,-0.1612684279680252,-0.08491026610136032
1767625043323311000,38.87531103515625,-0.10567969083786011,-0.06230825558304787,-0.03176499158143997
1767625043343404500,38.89540454101562,-0.031154127791523933,-0.09040805697441101,0.03237585723400116
1767625043363411200,38.9154111328125,0.1215621829032898,-0.182648703455925,0.19792033731937408
1767625043403484400,38.955484375,0.2926044464111328,-0.4398229718208313,0.6346889734268188
1767625043443554000,38.99555395507812,0.054367005825042725,-0.608421802520752,1.4092661142349243
1767625043483647000,39.03564697265625,-0.24007004499435425,-0.6291912198066711,2.1594085693359375
1767625043523742700,39.07574267578125,-0.07452555745840073,-0.6798930168151855,2.4831671714782715
1767625043563820500,39.11582055664063,0.4092797040939331,-1.3420709371566772,2.2094995975494385
1767625043603893200,39.15589331054687,0.9468411207199097,-1.778228759765625,1.6255123615264893
1767625043643982800,39.19598291015625,1.2418889999389648,-2.2382102012634277,1.2797627449035645
1767625043684048000,39.2360478515625,1.6236798763275146,-2.92543363571167,0.9663888216018677
1767625043724149000,39.27614892578125,1.9816468954086304,-3.6529741287231445,0.5076290369033813
1767625043764241000,39.316240966796876,1.9834794998168945,-3.687182664871216,-0.07819075137376785
1767625043804339200,39.356339111328126,1.7788395881652832,-3.5918877124786377,-0.655458390712738
1767625043844434400,39.39643432617188,1.6120734214782715,-3.4245104789733887,-0.7483099102973938
1767625043884529400,39.436529296875,1.3084733486175537,-3.36708927154541,-0.588263213634491
1767625043924605000,39.47660498046875,0.8405506014823914,-3.6554176807403564,-0.44165557622909546
1767625043964713000,39.516712890625,0.5943718552589417,-3.124575614929199,-0.45631635189056396
1767625044004827100,39.5568271484375,0.4453207552433014,-2.355496406555176,-0.7812966704368591
1767625044044931000,39.59693115234375,0.30970868468284607,-2.0610592365264893,-0.8894197940826416
1767625044085036800,39.63703686523438,0.6224716901779175,-1.9339994192123413,-0.6878342628479004
1767625044125128700,39.677128662109375,0.7764097452163696,-2.3432791233062744,-0.5540547966957092
1767625044145219300,39.69721923828125,0.8533787727355957,-2.163073778152466,-0.6340781450271606
1767625044165206300,39.717206298828124,0.8491026759147644,-1.7073683738708496,-0.7086036801338196
1767625044205285600,39.75728564453125,-0.018936822190880775,-1.653001308441162,-0.598647952079773
1767625044225364500,39.77736450195312,-0.2681698501110077,-1.807550311088562,-0.4893030524253845
1767625044245368000,39.7973681640625,-0.3591887652873993,-1.1820242404937744,-0.7452555894851685
1767625044285452500,39.83745263671875,-0.6450737118721008,-0.7305948138237,-0.7733554244041443
1767625044325537800,39.87753784179687,-0.43799036741256714,-1.5173892974853516,-0.6139195561408997
1767625044365631700,39.9176318359375,-0.48380526900291443,-2.29746413230896,-0.5461135506629944
1767625044405714400,39.95771435546875,-0.4795292317867279,-2.225382089614868,-0.31093040108680725
1767625044445809000,39.997808837890624,-0.30604347586631775,-1.6957619190216064,-0.45875978469848633
1767625044465900300,40.017900390625,-0.16004669666290283,-1.4550809860229492,-0.5455026626586914
1767625044485918000,40.03791796875,-0.10262536257505417,-1.436144232749939,-0.48380526900291443
1767625044526017800,40.07801782226562,-0.20341812074184418,-1.5638149976730347,-0.3646865487098694
1767625044566126300,40.118126220703125,-0.17592918872833252,-1.6890424489974976,-0.39156460762023926
1767625044606234400,40.158234375,-0.11789698898792267,-1.750128984451294,-0.37751471996307373
1767625044646321000,40.19832080078125,-0.19608774781227112,-1.660942554473877,-0.46547931432724
1767625044686428200,40.23842822265625,-0.29138273000717163,-1.2046263217926025,-0.4599815309047699
1767625044726540500,40.27854052734375,-0.23090706765651703,-1.102611780166626,-0.3640756905078888
1767625044766644000,40.31864404296875,-0.16249015927314758,-0.9547823667526245,-0.19425514340400696
1767625044786739000,40.338739013671876,-0.23335053026676178,-0.8906415104866028,-0.15882496535778046
1767625044806754300,40.35875439453125,-0.33475416898727417,-0.8283332586288452,-0.11911872029304504
1767625044826844400,40.378844482421876,-0.3579670190811157,-0.6536257863044739,-0.16920967400074005
1767625044846858200,40.398858154296875,-0.3805690407752991,-0.48685958981513977,-0.24434609711170197
1767625044866952200,40.4189521484375,-0.33536502718925476,-0.41661009192466736,-0.30543261766433716
1767625044886943000,40.43894287109375,-0.294437050819397,-0.3787364661693573,-0.29138273000717163
1767625044927048000,40.4790478515625,-0.34513887763023376,-0.313373863697052,-0.15454891324043274
1767625044947142000,40.49914184570312,-0.40683624148368835,-0.21074850857257843,-0.07330382615327835
1767625044967157200,40.5191572265625,-0.3805690407752991,-0.10323622822761536,0.04092797264456749
1767625045007261700,40.55926171875,-0.3188716471195221,-0.29077184200286865,0.03726277872920036
1767625045027357400,40.579357421875,-0.24373523890972137,-0.4447098970413208,0.1258382350206375
1767625045047373800,40.599373779296876,-0.1618792861700058,-0.5418374538421631,0.3072652220726013
1767625045087465700,40.6394658203125,-0.059864792972803116,-0.7238753437995911,1.0971139669418335
1767625045127538000,40.67953784179687,0.20036379992961884,-0.6908885836601257,1.9566013813018799
1767625045147632400,40.69963232421875,0.3384193480014801,-0.8723155856132507,2.2437081336975098
1767625045167645000,40.71964501953125,0.48808133602142334,-0.9138544201850891,2.431854486465454
1767625045207754500,40.75975439453125,0.8478809595108032,-0.99876469373703,2.2815816402435303
1767625045247838000,40.799837890625,1.160033106803894,-1.1178834438323975,1.7537940740585327
1767625045287946500,40.839946533203126,1.3408491611480713,-0.7116580009460449,1.318858027458191
1767625045328050700,40.88005078125,1.0995573997497559,-1.9932533502578735,1.1924089193344116
1767625045368134100,40.92013403320313,0.959669291973114,-2.0867156982421875,1.1429288387298584
1767625045408236800,40.96023681640625,0.7391469478607178,-1.3732250928878784,0.8124507665634155
1767625045448356000,41.000356201171876,0.43615779280662537,-0.9767735004425049,0.5204572081565857
1767625045488462600,41.04046264648437,0.2932153046131134,-0.8967501521110535,0.20830504596233368
1767625045528539400,41.080539306640624,0.02382374368607998,-0.5558874011039734,-0.27611109614372253
1767625045568617500,41.120617431640625,-0.09346238523721695,-0.15882496535778046,-0.6682865619659424
1767625045608696800,41.16069677734375,-0.09773843735456467,0.23335053026676178,-0.9443976879119873
1767625045648796000,41.2007958984375,-0.14049901068210602,0.26939156651496887,-1.0128145217895508
1767625045688883200,41.24088330078125,-0.006108652334660292,-0.028099801391363144,-0.44654250144958496
1767625045728964900,41.28096484375,0.20525072515010834,-0.09529497474431992,0.44837507605552673
1767625045769050400,41.32105029296875,0.08185594528913498,-0.24984388053417206,0.23396138846874237
1767625045809133800,41.3611337890625,-0.4703662395477295,0.04214970022439957,-0.38179078698158264
1767625045849197000,41.40119702148438,-0.2021963894367218,0.01466076634824276,-0.46242499351501465
1767625045889289000,41.4412890625,0.31642818450927734,0.8998045325279236,-0.9657779335975647
1767625045929368600,41.48136865234375,-0.25961771607398987,2.110539436340332,-1.632842779159546
1767625045969440000,41.52143994140625,-0.304210901260376,0.1973094791173935,-1.1844676733016968
1767625046009520000,41.56152001953125,-0.014049900695681572,0.39767327904701233,-1.1148290634155273
1767625046049609500,41.601609375,0.14538592100143433,0.7660250067710876,-0.8503243923187256
1767625046089685000,41.64168505859375,0.32009339332580566,1.6108516454696655,-0.5919284224510193
1767625046129788400,41.68178833007813,0.1722639948129654,1.7910568714141846,-0.6291912198066711
1767625046149881300,41.70188134765625,0.028099801391363144,1.6951510906219482,-0.475253164768219
1767625046169872100,41.7218720703125,-0.03420845419168472,1.7452419996261597,-0.4660901725292206
1767625046209956400,41.761956298828125,-0.09040805697441101,1.1563678979873657,-0.5754350423812866
1767625046250057700,41.8020576171875,0.001832595793530345,0.8319984674453735,-0.6780604124069214
1767625046290163500,41.84216357421875,0.04948008432984352,0.8258898258209229,-0.6065891981124878
1767625046310255400,41.86225537109375,0.01466076634824276,0.769690215587616,-0.5845980644226074
