time,seconds_elapsed,z,y,x
1767625004557419000,0.1094189453125,0.26230812072753906,-0.01291385293006897,0.008852273225784302
1767625004597494000,0.149493896484375,-0.3291339874267578,0.2671823501586914,0.15370196104049683
1767625004637579000,0.1895791015625,0.07834815979003906,0.037552520632743835,0.214710533618927
1767625004657619000,0.209618896484375,-1.3918085098266602,0.1403239518404007,-0.2701800763607025
1767625004677669400,0.22966943359375,-2.017573833465576,0.4036368131637573,-0.1808079183101654
1767625004717732400,0.269732421875,-0.6974124908447266,-0.43562382459640503,1.0336003303527832
1767625004757814800,0.309814697265625,-1.2811288833618164,-0.019712403416633606,-2.26128888130188
1767625004797902000,0.349902099609375,0.0699319839477539,-0.4643761217594147,0.322990745306015
1767625004837979600,0.389979736328125,-1.5237503051757812,-0.7188861966133118,-0.9586412906646729
1767625004878055200,0.43005517578125,-0.4079427719116211,-1.4536837339401245,-0.6993209719657898
1767625004918135800,0.4701357421875,-0.02923870086669922,-1.374949336051941,-0.5532455444335938
1767625004958200800,0.510200927734375,-0.568303108215332,-1.6656944751739502,-1.1747097969055176
1767625004978245000,0.5302451171875,-0.7246999740600586,-2.2020153999328613,-1.9266246557235718
1767625004998288100,0.5502880859375,-0.3241128921508789,-2.2887063026428223,-1.8122022151947021
1767625005018325000,0.570324951171875,-0.10135459899902344,-2.1455886363983154,-1.681220293045044
1767625005038358000,0.59035791015625,-0.7677221298217773,-2.307939052581787,-1.9245949983596802
1767625005078445300,0.6304453125,0.7590150833129883,-1.5487885475158691,-1.4926724433898926
1767625005118543400,0.67054345703125,-1.4784760475158691,-0.7563023567199707,-1.2135305404663086
1767625005158619400,0.710619384765625,2.07228422164917,0.9615960121154785,-0.47524094581604004
1767625005178648000,0.73064794921875,2.927400588989258,1.6212048530578613,-0.11572980880737305
1767625005198676500,0.750676513671875,2.0484280586242676,1.603759527206421,1.3307976722717285
1767625005218711600,0.770711669921875,2.4345035552978516,1.635291337966919,1.2718751430511475
1767625005238752800,0.790752685546875,3.5317931175231934,1.881899356842041,1.569962978363037
1767625005258791700,0.810791748046875,3.7496347427368164,2.1410555839538574,1.167933464050293
1767625005278850000,0.83085009765625,3.176239490509033,2.2130351066589355,0.9737796783447266
1767625005298892300,0.850892333984375,1.3397259712219238,1.8445022106170654,-0.28909826278686523
1767625005318936300,0.870936279296875,0.6202454566955566,1.205441951751709,-0.8713808059692383
1767625005338984200,0.890984130859375,0.5795650482177734,1.238985538482666,-0.34322595596313477
1767625005359023600,0.911023681640625,1.6039552688598633,1.9864904880523682,1.359626293182373
1767625005399092200,0.95109228515625,-0.8615412712097168,2.0401556491851807,2.5959553718566895
1767625005439145500,0.9911455078125,1.213007926940918,-0.8386979103088379,-3.061697483062744
1767625005479205600,1.03120556640625,0.6466286182403564,0.11054134368896484,0.44272518157958984
1767625005519274800,1.071274658203125,1.1178865432739258,-0.7967405319213867,-2.121209144592285
1767625005559332900,1.111332763671875,-0.02220630645751953,0.5778517723083496,1.2446632385253906
1767625005579358500,1.1313583984375,-1.063344955444336,0.3445253372192383,1.0772957801818848
1767625005599402000,1.151402099609375,-0.0020809173583984375,-0.5762062072753906,-1.8932476043701172
1767625005639463000,1.191462890625,0.22458481788635254,1.0421772003173828,-0.4273996353149414
1767625005679510800,1.2315107421875,-0.1577242612838745,2.8444666862487793,-1.1237201690673828
1767625005719568000,1.27156787109375,-0.5487155914306641,1.9301104545593262,1.8149142265319824
1767625005739597800,1.291597900390625,-0.0010663270950317383,0.9891924858093262,1.1663818359375
1767625005759648300,1.311648193359375,0.9826741218566895,-1.8306927680969238,-0.4567885398864746
1767625005799710200,1.351710205078125,0.4591403007507324,-3.1161417961120605,-2.049544334411621
1767625005819737900,1.37173779296875,-0.5928830504417419,-2.762955665588379,-0.7436542510986328
1767625005839772000,1.39177197265625,-0.2482151985168457,-1.677464485168457,0.18385696411132812
1767625005879833600,1.43183349609375,0.8020205497741699,-0.1060175895690918,4.445809364318848
1767625005899859200,1.451859130859375,-3.2643027305603027,1.2277755737304688,1.4107913970947266
1767625005919881200,1.471881103515625,0.9036072492599487,2.8081202507019043,-1.7956571578979492
1767625005959946200,1.5119462890625,2.583494186401367,5.207671642303467,-6.159121990203857
1767625006000013000,1.552012939453125,2.0487442016601562,5.472769737243652,-0.7496514320373535
1767625006020043000,1.57204296875,3.6095476150512695,5.533586502075195,-0.24692249298095703
1767625006040076800,1.592076904296875,-6.038514614105225,7.1604814529418945,0.3628361225128174
1767625006080146700,1.632146728515625,-4.24113655090332,1.827378749847412,1.507453203201294
1767625006120214800,1.67221484375,0.44472700357437134,-9.682245254516602,-0.4390723705291748
1767625006140245000,1.692244873046875,-0.18568016588687897,-11.238105773925781,-2.0322487354278564
1767625006160273200,1.712273193359375,-0.8905662298202515,-6.419492721557617,-2.6898605823516846
1767625006180302000,1.732302001953125,0.7305971384048462,-2.4869375228881836,-1.2278053760528564
1767625006200336400,1.75233642578125,2.3215250968933105,1.5033092498779297,-2.6725916862487793
1767625006220363000,1.772363037109375,0.6597837805747986,0.7711944580078125,-2.1739320755004883
1767625006240409900,1.792409912109375,0.10518093407154083,1.0837697982788086,-2.569823741912842
1767625006280488700,1.83248876953125,3.025866985321045,0.33344554901123047,1.5607645511627197
1767625006300523800,1.852523681640625,-1.6464606523513794,-1.7719106674194336,-0.7954138517379761
1767625006320558600,1.87255859375,0.23049849271774292,0.5956239700317383,0.22218918800354004
1767625006340586800,1.892586669921875,1.3397605419158936,3.078024387359619,0.7014545202255249
1767625006360622000,1.9126220703125,-0.7402670979499817,1.8366379737854004,-0.08185768127441406
1767625006400682000,1.952681884765625,-1.0468474626541138,2.8234758377075195,-0.6756759881973267
1767625006420710400,1.97271044921875,-1.0626109838485718,4.24574089050293,-1.0949543714523315
1767625006440744000,1.992743896484375,0.043732404708862305,3.057121753692627,-1.3096072673797607
1767625006480818200,2.032818115234375,0.8584381341934204,0.8583927154541016,0.5715152621269226
1767625006520892400,2.072892333984375,-1.1209272146224976,-2.5372982025146484,1.4451977014541626
1767625006560961500,2.11296142578125,0.37793123722076416,1.1557836532592773,1.4949654340744019
1767625006601032200,2.1530322265625,2.570383071899414,1.5459442138671875,-3.00048828125
1767625006641099000,2.19309912109375,-1.608340859413147,-4.08207893371582,-3.1480636596679688
1767625006681176800,2.2331767578125,1.415324091911316,-1.6564807891845703,1.5840256214141846
1767625006701212000,2.2532119140625,1.0857629776000977,-0.7763004302978516,-2.064361810684204
1767625006721265000,2.273264892578125,1.610438346862793,0.24944591522216797,-0.21968376636505127
1767625006761338400,2.31333837890625,1.0927674770355225,-2.2235727310180664,-0.18732723593711853
1767625006801410000,2.35341015625,0.160131573677063,-1.0921812057495117,0.27475565671920776
1767625006841490700,2.39349072265625,0.5392378568649292,4.16124963760376,-0.9797390699386597
1767625006881562400,2.433562255859375,0.49384868144989014,-0.4249258041381836,-0.7546699643135071
1767625006921641200,2.47364111328125,0.9393692016601562,0.17179393768310547,-0.8484113216400146
1767625006941685000,2.49368505859375,0.9258933067321777,0.41379642486572266,-0.5789418816566467
1767625006961750000,2.51375,0.7406187057495117,0.6027307510375977,-0.7713119983673096
1767625006981799000,2.533798828125,0.632394552230835,0.6485223770141602,-0.7082786560058594
1767625007001852200,2.55385205078125,0.34559106826782227,0.4705028533935547,-0.7015195488929749
1767625007041943000,2.593943115234375,0.5572648048400879,0.13144397735595703,-0.09624236822128296
1767625007082035700,2.63403564453125,0.5241937637329102,0.0936279296875,0.05433613061904907
1767625007102080300,2.654080322265625,0.40186190605163574,0.3160247802734375,0.06921905279159546
1767625007122109000,2.67410888671875,0.2493290901184082,0.31626033782958984,0.6144481897354126
1767625007142158000,2.694157958984375,0.11294174194335938,0.25323009490966797,0.8054099082946777
1767625007162215200,2.714215087890625,-0.8398774862289429,0.41004276275634766,0.6805764436721802
1767625007202307300,2.754307373046875,-1.6384958028793335,-0.5898227691650391,0.06196892261505127
1767625007222341000,2.774341064453125,-1.022166132926941,-0.7862110137939453,0.9599107503890991
1767625007242392000,2.79439208984375,-0.2953953742980957,-0.16190052032470703,0.9111857414245605
1767625007282492200,2.8344921875,-0.647171139717102,0.2476491928100586,-0.40878385305404663
1767625007322595800,2.874595947265625,-1.093448281288147,-0.4119586944580078,-0.6549654603004456
1767625007362669800,2.914669921875,-0.9381168484687805,0.157623291015625,-1.0963854789733887
1767625007402765600,2.954765625,-0.2192230522632599,0.24763011932373047,0.10763606429100037
1767625007422812000,2.97481201171875,0.009415417909622192,0.5103130340576172,0.07342959940433502
1767625007442875600,2.994875732421875,-0.1058591902256012,0.29619884490966797,-0.08511050045490265
1767625007482972400,3.034972412109375,0.1876004934310913,-0.7144060134887695,-0.4529136121273041
1767625007523058400,3.075058349609375,-0.5858880281448364,-0.5023984909057617,-0.640296459197998
1767625007563152000,3.11515185546875,-0.53277587890625,0.8043498992919922,0.9433932304382324
1767625007603222000,3.155221923828125,-0.08622416853904724,0.01566314697265625,0.2902129888534546
1767625007643318500,3.195318603515625,0.3675103187561035,0.09045600891113281,-0.25640615820884705
1767625007683423200,3.23542333984375,0.9486597180366516,-0.15951156616210938,-0.6731236577033997
1767625007723517000,3.275516845703125,0.45200851559638977,0.1786060333251953,-1.7673462629318237
1767625007763623000,3.315622802734375,0.01862281560897827,0.25693416595458984,-1.2176830768585205
1767625007783668000,3.33566796875,0.35166746377944946,-0.004695892333984375,-0.6705918908119202
1767625007803828000,3.355827880859375,0.6640399098396301,-0.09963607788085938,-0.6840927600860596
1767625007843901400,3.3959013671875,-0.04647219181060791,-0.31786346435546875,-1.0945377349853516
1767625007883997400,3.43599755859375,0.3326526880264282,0.24144458770751953,-0.3012593388557434
1767625007904043500,3.45604345703125,0.3917783498764038,-0.5722732543945312,0.31200820207595825
1767625007924072200,3.476072265625,0.7708739042282104,-1.1548852920532227,0.3172481656074524
1767625007964165000,3.5161650390625,1.2069506645202637,-0.8423776626586914,-0.5543228983879089
1767625008004261600,3.55626171875,0.7565689086914062,-2.1633710861206055,-3.1514222621917725
1767625008044341800,3.596341796875,1.3566120862960815,-2.1633825302124023,-1.4545936584472656
1767625008084398800,3.63639892578125,2.4788899421691895,-0.7178983688354492,0.5273849964141846
1767625008124481800,3.676481689453125,1.2042914628982544,0.8872766494750977,1.693568468093872
1767625008164582000,3.716581787109375,-1.0179656744003296,0.6356296539306641,1.367045521736145
1767625008204659700,3.75665966796875,-2.2548346519470215,-2.435209274291992,-1.294694185256958
1767625008224692000,3.77669189453125,-2.4165849685668945,-3.232754707336426,-1.2966110706329346
1767625008244731600,3.796731689453125,-1.6699200868606567,-2.5013742446899414,0.5825149416923523
1767625008284814800,3.83681494140625,-1.0718927383422852,-0.46514415740966797,1.3516837358474731
1767625008324877600,3.876877685546875,-0.8753187656402588,0.013414382934570312,-0.16573500633239746
1767625008344913400,3.896913330078125,-1.0542423725128174,0.025475502014160156,-0.2562394142150879
1767625008365022200,3.917022216796875,-1.541680097579956,0.16669940948486328,0.9092261791229248
1767625008405130200,3.957130126953125,-2.824667453765869,0.9518365859985352,2.383727550506592
1767625008445212400,3.99721240234375,-2.562736988067627,1.7371225357055664,2.11660099029541
1767625008485280000,4.037280029296875,-1.379939079284668,1.8950462341308594,1.8172450065612793
1767625008525352700,4.077352783203125,-1.8564434051513672,1.6776108741760254,0.7045478820800781
1767625008545390000,4.09739013671875,-1.9276654720306396,1.911510944366455,0.3437320590019226
1767625008565423900,4.117423828125,-1.7876837253570557,1.897862434387207,0.12016361951828003
1767625008605500400,4.15750048828125,-0.6298995018005371,0.8243408203125,0.34289199113845825
1767625008645597200,4.19759716796875,1.6497447490692139,-0.808781623840332,-0.2666782736778259
1767625008685673000,4.2376728515625,2.6460282802581787,-2.299361228942871,-1.0710711479187012
1767625008725743900,4.277743896484375,3.5901851654052734,-1.1304340362548828,0.06677806377410889
1767625008765824000,4.317823974609375,1.0567905902862549,-0.8734560012817383,1.8290047645568848
1767625008805886000,4.357885986328125,-2.047999620437622,-4.982137680053711,3.121879816055298
1767625008825917000,4.3779169921875,-1.8982596397399902,-3.182185173034668,0.9768460988998413
1767625008845951000,4.397950927734375,-1.763674020767212,0.11068344116210938,1.8221685886383057
1767625008865982700,4.417982666015625,0.5668232440948486,1.9698209762573242,4.363892555236816
1767625008886031000,4.438031005859375,-1.466543197631836,2.550121784210205,2.637993574142456
1767625008926095400,4.478095458984375,-4.425074100494385,1.0361709594726562,-0.7565763592720032
1767625008966232300,4.518232421875,-1.5357260704040527,-1.7552814483642578,-0.5474730134010315
1767625009006323000,4.558322998046875,-0.870945394039154,0.4176521301269531,1.4866244792938232
1767625009046393900,4.598393798828125,-2.0370099544525146,0.024267196655273438,2.3709583282470703
1767625009066431700,4.618431640625,-1.8364787101745605,-0.19251251220703125,1.6280910968780518
1767625009086476500,4.6384765625,-1.206961989402771,-0.10317134857177734,0.7080063819885254
1767625009126584800,4.678584716796875,-1.252132534980774,0.3438749313354492,0.4842347502708435
1767625009166683400,4.718683349609375,-1.061673879623413,0.1719989776611328,-0.3632453680038452
1767625009206791400,4.75879150390625,-0.22187703847885132,0.17898845672607422,-0.6543295383453369
1767625009246891800,4.798891845703125,-0.2156236171722412,0.07046222686767578,0.2729577422142029
1767625009286969000,4.838968994140625,0.40718185901641846,-0.15309810638427734,0.14098519086837769
1767625009327073300,4.8790732421875,1.3584113121032715,0.10131263732910156,0.3913523554801941
1767625009367182600,4.9191826171875,1.1075085401535034,-0.46669673919677734,-1.1201605796813965
1767625009387226000,4.93922607421875,0.7207925319671631,-0.44037914276123047,-2.2107138633728027
1767625009407278300,4.9592783203125,0.4565936326980591,-0.17245006561279297,-2.1600990295410156
1767625009427321000,4.979321044921875,0.6605544686317444,-0.029953956604003906,-1.7701878547668457
1767625009447373300,4.999373291015625,0.35908615589141846,-0.037003517150878906,-1.2150086164474487
1767625009467420700,5.019420654296875,0.44651973247528076,-0.5319900512695312,-1.0688581466674805
1767625009487476700,5.039476806640625,0.5913660526275635,-0.4432563781738281,0.2959481477737427
1767625009527553000,5.079552978515625,1.4823232889175415,-0.7622957229614258,0.5533931851387024
1767625009567655400,5.119655517578125,0.6751385927200317,-2.807096481323242,-2.0150232315063477
1767625009587689700,5.139689697265625,0.9226654171943665,-2.1935501098632812,-1.1087205410003662
1767625009607743500,5.159743408203125,1.59674072265625,-2.200711250305176,0.03168076276779175
1767625009647826200,5.199826171875,2.0835750102996826,-0.8980073928833008,0.3183274269104004
1767625009667872500,5.21987255859375,1.4193243980407715,-0.6347103118896484,1.7471327781677246
1767625009687928600,5.239928466796875,0.6450439095497131,-0.8429641723632812,3.1385061740875244
1767625009728010000,5.280010009765625,-0.4161120653152466,0.10783100128173828,4.189728736877441
1767625009768091100,5.320091064453125,-1.7878081798553467,-2.3757686614990234,0.9438380599021912
1767625009808177700,5.360177734375,-1.8211712837219238,-1.0416383743286133,0.09069418907165527
1767625009828218400,5.38021826171875,-2.2378547191619873,-0.3114452362060547,0.3580397963523865
1767625009848284400,5.400284423828125,-1.7859416007995605,0.36660099029541016,0.3388438820838928
1767625009868329200,5.4203291015625,-1.566354751586914,0.5289125442504883,0.32108253240585327
1767625009888375000,5.440375,-1.8826661109924316,0.11972522735595703,0.5985658764839172
1767625009928475600,5.4804755859375,-1.5467000007629395,0.22045421600341797,2.1703057289123535
1767625009968583700,5.520583740234375,-2.4323291778564453,1.6678352355957031,2.927969455718994
1767625010008656100,5.56065625,-3.066657543182373,2.594686508178711,2.5225625038146973
1767625010048738600,5.600738525390625,-2.2093124389648438,1.9398608207702637,0.4954512119293213
1767625010088840200,5.640840087890625,-0.7128221988677979,1.2059168815612793,-0.42476117610931396
1767625010128927200,5.68092724609375,0.9348549842834473,0.7707805633544922,-0.0822364091873169
1767625010169025500,5.721025634765625,2.3441174030303955,-0.9748382568359375,-0.4795169234275818
1767625010209120500,5.76112060546875,4.642119407653809,-2.639340400695801,-0.32926201820373535
1767625010249189600,5.801189697265625,4.610699653625488,-0.19025039672851562,0.30274319648742676
1767625010289260500,5.841260498046875,-0.37535786628723145,0.18999862670898438,4.230341911315918
1767625010329344300,5.88134423828125,-2.616018295288086,-6.730755805969238,3.63771653175354
1767625010369418500,5.92141845703125,-1.0578935146331787,1.1130256652832031,1.4969912767410278
1767625010409495600,5.96149560546875,-4.471604824066162,2.4742002487182617,4.09226655960083
1767625010449571600,6.001571533203125,-2.9718878269195557,0.10838890075683594,-0.94038987159729
1767625010489635000,6.041635009765625,-1.5635899305343628,-1.0557622909545898,-1.3939213752746582
1767625010529713700,6.081713623046875,-1.2166025638580322,1.3236799240112305,2.010444402694702
1767625010549754400,6.10175439453125,-1.2502143383026123,0.3957653045654297,2.1397669315338135
1767625010569808400,6.121808349609375,-1.171849250793457,-0.5972003936767578,1.8464570045471191
1767625010609901300,6.1619013671875,-0.231252059340477,0.12849903106689453,1.5261881351470947
1767625010649996300,6.201996337890625,-0.34219488501548767,0.19320106506347656,-0.10451638698577881
1767625010690080300,6.242080322265625,-0.5546072125434875,0.8881826400756836,-0.6690437197685242
1767625010730145800,6.282145751953125,-0.16244328022003174,0.46505165100097656,0.5683963894844055
1767625010770246400,6.322246337890625,0.5917284488677979,-0.17972469329833984,0.2921074628829956
1767625010790290700,6.342290771484375,1.1332284212112427,0.008631706237792969,0.041411638259887695
1767625010810322200,6.362322265625,1.5034202337265015,-0.1725788116455078,0.33726274967193604
1767625010850429000,6.402428955078125,1.631630301475525,0.09972095489501953,-0.29576724767684937
1767625010890529500,6.442529541015625,-0.011799097061157227,-0.05315399169921875,-1.8949675559997559
1767625010930617900,6.482617919921875,0.17757022380828857,-0.9716682434082031,-0.9614760279655457
1767625010950663200,6.5026630859375,1.031491756439209,-1.0822620391845703,0.3785957098007202
1767625010970691800,6.52269189453125,1.7851245403289795,-1.4036188125610352,0.44496726989746094
1767625010990728200,6.542728271484375,2.0923850536346436,-0.5953493118286133,-0.22508886456489563
1767625011010775600,6.562775634765625,0.7539349794387817,-5.039067268371582,-5.55687141418457
1767625011050860500,6.602860595703125,1.7312592267990112,-2.5062503814697266,-1.04925537109375
1767625011090936300,6.642936279296875,2.081489086151123,-1.9663572311401367,0.7531956434249878
1767625011131035400,6.683035400390625,1.1202467679977417,0.4742116928100586,2.4481687545776367
1767625011171132200,6.723132080078125,-0.988090455532074,0.1692371368408203,2.1372485160827637
1767625011211203800,6.763203857421875,-1.5861480236053467,-2.221799850463867,0.22507190704345703
1767625011251298600,6.803298583984375,-1.564160704612732,-0.876042366027832,-0.147355318069458
1767625011291381200,6.84338134765625,-2.121990442276001,-0.04920482635498047,0.10978347063064575
1767625011331463400,6.88346337890625,-2.3058419227600098,0.43685436248779297,0.17888563871383667
1767625011371566300,6.92356640625,-1.7705353498458862,0.6143941879272461,1.2356395721435547
1767625011391602400,6.9436025390625,-2.576866626739502,0.981198787689209,1.9615437984466553
1767625011411656200,6.96365625,-2.9381103515625,1.9603919982910156,2.8630332946777344
1767625011431690500,6.9836904296875,-3.292677402496338,2.6214990615844727,3.1367640495300293
1767625011451721500,7.003721435546875,-3.4553730487823486,2.9597792625427246,2.4639110565185547
1767625011491794400,7.04379443359375,-2.2591753005981445,1.9482488632202148,0.17324823141098022
1767625011531870200,7.0838701171875,-0.7756674289703369,1.3964576721191406,0.47998279333114624
1767625011551908000,7.103908203125,-0.0247039794921875,0.9141883850097656,0.6426374316215515
1767625011571950600,7.12395068359375,0.8247413635253906,-0.08199787139892578,0.1943485140800476
1767625011612036000,7.1640361328125,3.4824962615966797,-2.7513341903686523,-0.5865034461021423
1767625011632073200,7.1840732421875,4.471506595611572,-3.5865602493286133,-0.8638745546340942
1767625011652116000,7.204115966796875,4.631347179412842,-2.992624282836914,-0.9982593655586243
1767625011692183300,7.244183349609375,1.9793474674224854,3.2287864685058594,0.5946335196495056
1767625011732263700,7.284263671875,-1.755266547203064,-4.7647247314453125,4.521333694458008
1767625011752301000,7.304301025390625,-2.9858877658843994,-9.110394477844238,4.008312702178955
1767625011772353300,7.324353271484375,-2.431124210357666,-3.2285165786743164,-0.7882360219955444
1767625011812424700,7.3644248046875,-1.9064570665359497,2.283876895904541,2.9724531173706055
1767625011832455400,7.384455322265625,-4.92142391204834,2.5343093872070312,2.692094326019287
1767625011852496600,7.40449658203125,-5.719877243041992,2.067530632019043,1.7831294536590576
1767625011892569000,7.444569091796875,-1.9205141067504883,-2.2947330474853516,-3.639958143234253
1767625011932626200,7.484626220703125,-1.6626205444335938,0.3662691116333008,0.5284720659255981
1767625011972700200,7.5247001953125,-1.636403203010559,1.4006414413452148,3.307420253753662
1767625011992741600,7.54474169921875,-1.6349709033966064,-1.2180109024047852,2.058002233505249
1767625012012791800,7.564791748046875,-0.6869596838951111,-1.2173423767089844,0.387176513671875
1767625012052886500,7.604886474609375,-1.4025790691375732,0.7933158874511719,0.280888170003891
1767625012092977400,7.644977294921875,-1.0818536281585693,-0.19956111907958984,-0.022535979747772217
1767625012133062700,7.685062744140625,0.2891536056995392,0.5504636764526367,-1.9832656383514404
1767625012173120300,7.725120361328125,-0.28332948684692383,-0.10279178619384766,0.3361009657382965
1767625012193163800,7.745163818359375,-0.1288210153579712,-0.06505775451660156,1.0009878873825073
1767625012213205500,7.76520556640625,0.3816215395927429,-0.0570068359375,1.143146276473999
1767625012233245200,7.7852451171875,0.8374298810958862,0.13199424743652344,0.9469537734985352
1767625012253304300,7.80530419921875,1.1777256727218628,0.11796760559082031,0.6575927138328552
1767625012293393700,7.8453935546875,0.866837739944458,-0.11868858337402344,-1.2737118005752563
1767625012333488000,7.885488037109375,0.5659937858581543,0.05639362335205078,-1.0369898080825806
1767625012373587200,7.925587158203125,0.5714643001556396,-0.07181644439697266,-0.13672521710395813
1767625012413662700,7.965662841796875,0.7936503887176514,-0.5392494201660156,0.35672229528427124
1767625012453760000,8.005760009765625,2.3046393394470215,-1.367060661315918,-0.720543622970581
1767625012493842200,8.04584228515625,0.7981091737747192,-3.7092103958129883,-5.896169185638428
1767625012513876500,8.06587646484375,0.9655932784080505,-2.955204963684082,-4.028607368469238
1767625012533919000,8.0859189453125,1.9177268743515015,-2.7470502853393555,-1.380815863609314
1767625012553956000,8.1059560546875,2.47769832611084,-1.2504196166992188,-0.20621289312839508
1767625012573997600,8.12599755859375,0.4668377637863159,0.28673458099365234,-0.07601502537727356
1767625012594032400,8.146032470703124,-0.16078096628189087,0.8518714904785156,1.9884072542190552
1767625012614080800,8.166080810546875,-0.4232996106147766,0.7487239837646484,3.376725912094116
1767625012654152700,8.206152587890625,-2.2543296813964844,-1.7136125564575195,0.11850449442863464
1767625012694232600,8.246232666015626,-2.2041711807250977,-3.1642675399780273,-0.8202660083770752
1767625012734314200,8.286314208984376,-2.3128156661987305,-1.1613893508911133,-0.5149904489517212
1767625012774393600,8.3263935546875,-2.386228561401367,0.34794139862060547,0.027811527252197266
1767625012794429000,8.346428955078125,-2.255319356918335,0.39971351623535156,0.5604004263877869
1767625012814484500,8.366484375,-2.468008279800415,0.4304361343383789,0.9566382169723511
1767625012854583000,8.4065830078125,-3.621582508087158,0.7683801651000977,2.00113582611084
1767625012894662100,8.446662109375,-3.893357753753662,1.6448817253112793,2.717609405517578
1767625012914693600,8.466693603515624,-3.546248435974121,1.870041847229004,2.458030939102173
1767625012934727200,8.48672705078125,-2.780686855316162,1.554703712463379,1.8841943740844727
1767625012954759200,8.50675927734375,-2.5072593688964844,1.148735523223877,0.971685528755188
1767625012974805500,8.526805419921875,-2.279928684234619,0.9000577926635742,0.7969851493835449
1767625013014883800,8.5668837890625,-1.7765755653381348,1.101696491241455,1.3156968355178833
1767625013054974000,8.606973876953125,-0.5673575401306152,0.5649871826171875,0.21246081590652466
1767625013095076600,8.64707666015625,0.7854094505310059,-1.0587348937988281,0.30946868658065796
1767625013115122200,8.6671220703125,1.6765072345733643,-2.166627883911133,0.49234890937805176
1767625013135152400,8.68715234375,3.353078603744507,-2.6067028045654297,0.3723503649234772
1767625013175217700,8.7272177734375,3.2028656005859375,-0.8445253372192383,-1.788769006729126
1767625013195247900,8.747247802734375,2.472714900970459,1.3966245651245117,-0.8690809011459351
1767625013215295700,8.767295654296875,0.6858983039855957,-1.4378957748413086,1.7253180742263794
1767625013255368000,8.807367919921875,-2.47003173828125,-6.19775390625,0.9982526302337646
1767625013295445800,8.84744580078125,-0.291593074798584,2.0620059967041016,4.3793792724609375
1767625013335515100,8.88751513671875,-5.801211833953857,1.763270378112793,2.34639048576355
1767625013375582500,8.92758251953125,-2.919949769973755,-1.063333511352539,-0.45504772663116455
1767625013415650300,8.967650390625,-2.4575328826904297,-0.8319520950317383,-1.1930265426635742
1767625013435679500,8.987679443359376,-2.206378221511841,0.8853740692138672,1.3325884342193604
1767625013455723500,9.0077236328125,-2.4637610912323,1.6537079811096191,2.27852201461792
1767625013475759900,9.027759765625,-2.6901793479919434,0.2885580062866211,2.2365610599517822
1767625013495803100,9.04780322265625,-2.043457269668579,-1.1896543502807617,2.3261232376098633
1767625013535887000,9.08788720703125,-0.9739303588867188,0.3186788558959961,0.9082391858100891
1767625013575987000,9.127987060546875,-0.7950989007949829,-0.035614967346191406,0.6029629707336426
1767625013596032800,9.14803271484375,-0.96201491355896,-0.19745445251464844,0.5374018549919128
1767625013616066800,9.16806689453125,-1.2069740295410156,-0.1322917938232422,-0.7659314870834351
1767625013656267800,9.208267822265626,-0.7225836515426636,0.5092754364013672,-1.34458589553833
1767625013696380000,9.2483798828125,-0.25146132707595825,0.01653766632080078,0.8424383401870728
1767625013736479700,9.288479736328124,0.1447574496269226,-0.2184276580810547,1.2302546501159668
1767625013776586500,9.32858642578125,0.8026338815689087,-0.10912132263183594,0.6137380599975586
1767625013816680000,9.368679931640624,0.4775105118751526,-0.19073009490966797,-0.9716469049453735
1767625013856753000,9.4087529296875,0.023888230323791504,0.10590648651123047,-1.2594387531280518
1767625013876800300,9.42880029296875,-0.2261059284210205,0.4202842712402344,-0.6728440523147583
1767625013896859000,9.44885888671875,-0.02300441265106201,0.35935211181640625,-0.21647536754608154
1767625013916906800,9.46890673828125,0.3675316572189331,-0.28224945068359375,-0.4141889810562134
1767625013936938500,9.4889384765625,-0.03459203243255615,-0.15033435821533203,0.5008461475372314
1767625013956984000,9.508984130859375,0.7027531862258911,-0.6085910797119141,1.0553984642028809
1767625013977039000,9.5290390625,1.146904468536377,-0.7269620895385742,0.5257692337036133
1767625014017141200,9.569141357421875,1.2667577266693115,-0.5929479598999023,-1.672304630279541
1767625014057235700,9.609235595703124,0.6573024988174438,-2.4779014587402344,-1.746628761291504
1767625014077271800,9.629271728515626,1.513459324836731,-2.387920379638672,-0.3419681191444397
1767625014097306000,9.64930615234375,1.6962345838546753,-1.7859926223754883,0.00889703631401062
1767625014137413400,9.689413330078125,1.1348334550857544,0.1867523193359375,1.8963334560394287
1767625014177528600,9.729528564453124,-0.0007604360580444336,0.40059757232666016,3.5356497764587402
1767625014197570600,9.749570556640625,-0.39178165793418884,0.2881965637207031,3.73162841796875
1767625014217629000,9.76962890625,-1.0892460346221924,-0.24321365356445312,2.499708652496338
1767625014257716700,9.809716796875,-2.065178394317627,-3.150273323059082,-0.2694099545478821
1767625014297794600,9.849794677734375,-1.99972665309906,-0.24649715423583984,1.6403026580810547
1767625014337872100,9.8898720703125,-1.14510178565979,0.6364078521728516,0.16855651140213013
1767625014377956400,9.929956298828126,-1.245402216911316,0.4727764129638672,0.8969208002090454
1767625014398000600,9.950000732421875,-1.3378947973251343,0.890315055847168,1.9079487323760986
1767625014418060300,9.970060302734375,-1.6856746673583984,1.4019451141357422,2.55184268951416
1767625014458141000,10.010140869140624,-2.113154172897339,2.4351253509521484,2.3847272396087646
1767625014478174200,10.03017431640625,-2.0482177734375,2.1426029205322266,1.7261580228805542
1767625014498214100,10.050214111328126,-1.8088685274124146,1.347132682800293,0.8627829551696777
1767625014538312000,10.09031201171875,-1.2428922653198242,0.5830984115600586,0.10302895307540894
1767625014558356200,10.110356201171875,-0.4427626132965088,0.8823070526123047,-0.1935962438583374
1767625014578385000,10.130385009765625,0.136061429977417,1.0621461868286133,-0.4955228567123413
1767625014618472700,10.17047265625,0.44472217559814453,-0.07470226287841797,-0.2662128210067749
1767625014638513000,10.190512939453125,1.0336830615997314,-0.4703655242919922,-0.15170007944107056
1767625014658549800,10.2105498046875,1.4590461254119873,-0.14229965209960938,-0.17854338884353638
1767625014698652000,10.25065185546875,2.4646389484405518,-0.5133571624755859,0.41339224576950073
1767625014738757400,10.29075732421875,2.533905506134033,-0.3343658447265625,1.0186328887939453
1767625014758803500,10.310803466796875,1.807039737701416,0.3598909378051758,1.3838502168655396
1767625014778861000,10.330861083984376,0.7209038734436035,0.8113632202148438,1.0735704898834229
1767625014818941000,10.37094091796875,-0.7128968238830566,0.832427978515625,1.011853575706482
1767625014859012600,10.4110126953125,-1.6750094890594482,-5.161403656005859,2.733773708343506
1767625014899093200,10.45109326171875,-0.048742055892944336,-3.8902950286865234,2.7043211460113525
1767625014939164700,10.49116455078125,-1.844841718673706,3.1247506141662598,4.041551113128662
1767625014959201800,10.511201904296875,-3.805546760559082,4.222581386566162,3.757145881652832
1767625014979245600,10.53124560546875,-4.022972583770752,3.319410800933838,2.824416160583496
1767625015019324200,10.57132421875,-1.537190318107605,-2.5960264205932617,-2.4129905700683594
1767625015039361500,10.591361572265624,-1.7344138622283936,-1.8858518600463867,-2.8872737884521484
1767625015059392500,10.611392578125,-0.8041601181030273,-0.33358287811279297,-0.3175024390220642
1767625015099477000,10.65147705078125,-0.3809773325920105,-0.4575462341308594,2.1810057163238525
1767625015139573800,10.69157373046875,-0.8050292730331421,0.13710784912109375,2.8894598484039307
1767625015159618600,10.71161865234375,-1.5191805362701416,0.4074850082397461,1.915114164352417
1767625015179664400,10.731664306640624,-1.5634634494781494,0.45306396484375,0.5956761240959167
1767625015219749400,10.771749267578125,-1.0494967699050903,0.20145416259765625,-0.23179572820663452
1767625015239794400,10.79179443359375,-0.7362696528434753,0.010870933532714844,-0.26571124792099
1767625015259850000,10.81185009765625,-0.19368422031402588,0.050083160400390625,-0.622914731502533
1767625015299932200,10.85193212890625,0.5542973875999451,-0.09768104553222656,-1.0707205533981323
1767625015340033300,10.892033203125,0.7879817485809326,-0.1277456283569336,0.08848273754119873
1767625015360095200,10.91209521484375,1.0214881896972656,-0.19083023071289062,0.22762179374694824
1767625015400209700,10.952209716796874,1.3504869937896729,-0.2572507858276367,0.03642714023590088
1767625015420263400,10.972263427734376,1.127193808555603,0.07392597198486328,0.015204906463623047
1767625015440312300,10.992312255859375,1.1317921876907349,0.4969511032104492,-0.29895639419555664
1767625015460370000,11.012369873046875,0.763552188873291,0.49071693420410156,-1.361811637878418
1767625015500471800,11.052471923828126,0.0882500410079956,-0.3631420135498047,-1.3790605068206787
1767625015540553500,11.092553466796875,0.7277432084083557,-0.03307342529296875,0.26229044795036316
1767625015580661200,11.1326611328125,0.32630348205566406,-0.6601505279541016,0.514473557472229
1767625015620774000,11.17277392578125,1.1019335985183716,-1.199213981628418,-0.494687557220459
1767625015660857000,11.212857177734374,-0.24883806705474854,-2.971223831176758,-3.577643871307373
1767625015700938200,11.252938232421876,1.3456852436065674,-3.1467790603637695,0.39062008261680603
1767625015741022200,11.293022216796874,1.7315888404846191,-1.0947275161743164,0.8788484334945679
1767625015781091600,11.333091552734375,0.41621464490890503,1.9550199508666992,1.7911393642425537
1767625015821165000,11.3731650390625,-1.388157606124878,1.4447612762451172,0.4856787323951721
1767625015841205500,11.39320556640625,-2.648409605026245,-0.4125986099243164,-0.8020676374435425
1767625015861253400,11.41325341796875,-3.128650665283203,-2.7227439880371094,-1.8431105613708496
1767625015901324000,11.453323974609376,-2.1748545169830322,-2.3539838790893555,-0.24601423740386963
1767625015941404400,11.493404296875,-1.7758201360702515,-0.7238035202026367,0.1588115096092224
1767625015981487600,11.533487548828125,-1.5078076124191284,-0.5333452224731445,0.03361845016479492
1767625016021621000,11.57362109375,-2.544127941131592,-0.2437591552734375,0.7653509974479675
1767625016041682700,11.5936826171875,-3.319823741912842,0.5224533081054688,1.6220166683197021
1767625016061735000,11.61373486328125,-3.937229633331299,1.2612824440002441,2.2069945335388184
1767625016101809000,11.653808837890624,-3.388485908508301,1.9950041770935059,2.736973285675049
1767625016141873000,11.693872802734376,-2.623196601867676,1.7017712593078613,1.5791654586791992
1767625016181945000,11.733945068359375,-2.256256341934204,1.4156346321105957,0.8639853000640869
1767625016222007300,11.77400732421875,-1.4954326152801514,1.4612760543823242,0.7795767784118652
1767625016242037800,11.794037841796875,-0.7791438102722168,0.9300107955932617,0.37218502163887024
1767625016262063400,11.8140634765625,0.30010080337524414,0.06985664367675781,0.012759149074554443
1767625016302133500,11.854133544921876,2.3166911602020264,-2.159062385559082,-0.46204352378845215
1767625016342208500,11.89420849609375,5.094489574432373,-4.0259294509887695,-1.5846514701843262
1767625016382269700,11.934269775390625,2.0591087341308594,1.442647933959961,-1.985024333000183
1767625016422331400,11.974331298828124,-1.0124316215515137,0.9907941818237305,2.41964054107666
1767625016462393900,12.014393798828126,-3.07053804397583,-6.960603713989258,1.8529269695281982
1767625016502442500,12.0544423828125,-1.1857891082763672,-0.6716890335083008,4.958793640136719
1767625016542505500,12.09450537109375,-6.704632759094238,4.2911481857299805,1.7564839124679565
1767625016582579700,12.134579833984375,-4.15066385269165,-0.061981201171875,-1.3082629442214966
1767625016622641400,12.174641357421875,-2.1706466674804688,-2.33004093170166,-2.5573196411132812
1767625016662709500,12.21470947265625,-1.6709721088409424,1.3633480072021484,3.0095818042755127
1767625016702782000,12.254781982421875,-1.9664889574050903,-0.08519268035888672,2.96458101272583
1767625016742844200,12.29484423828125,-1.6096885204315186,0.28720664978027344,1.3393287658691406
1767625016782934800,12.334934814453124,-0.9756488800048828,0.006888389587402344,-0.033180415630340576
1767625016802976500,12.3549765625,-1.2423030138015747,0.0858001708984375,-1.1331512928009033
1767625016823040800,12.375040771484375,-0.9147223830223083,0.3241996765136719,-1.0960705280303955
1767625016863144200,12.415144287109374,-0.9133487939834595,0.33193111419677734,-0.22270327806472778
1767625016903242500,12.455242431640626,-0.13316285610198975,-0.01190185546875,0.6760531067848206
1767625016943341800,12.495341796875,0.8557499647140503,0.23107242584228516,0.6876003742218018
1767625016983426600,12.535426513671876,0.8948720097541809,-0.12379074096679688,-0.03810107707977295
1767625017003471600,12.5554716796875,0.9017986059188843,0.10878944396972656,-0.6916826367378235
1767625017023524000,12.575524169921875,0.8469892144203186,0.21291351318359375,-1.2955178022384644
1767625017043565300,12.5955654296875,0.5420897006988525,-0.032073974609375,-1.512200117111206
1767625017063622700,12.61562255859375,0.15536940097808838,-0.25760364532470703,-0.9369946718215942
1767625017103713800,12.6557138671875,0.7673930525779724,-0.7060117721557617,0.053720057010650635
1767625017143806700,12.695806640625,1.818457007408142,-0.9414443969726562,0.4111192524433136
1767625017183890200,12.73589013671875,0.7277098894119263,-3.637279510498047,-4.008358478546143
1767625017223959300,12.775959228515624,1.0945055484771729,-2.5365476608276367,-0.9472490549087524
1767625017264038000,12.816037841796875,1.2827227115631104,-0.6721973419189453,1.3828308582305908
1767625017304133400,12.85613330078125,0.5612994432449341,1.4029159545898438,3.141120195388794
1767625017344225800,12.896225830078125,-1.584294080734253,0.13808536529541016,1.050360083580017
1767625017384317700,12.936317626953125,-2.8757219314575195,-3.6427412033081055,-0.5719013214111328
1767625017424390000,12.976389892578124,-1.874333143234253,-1.3079814910888672,0.5717411041259766
1767625017464466000,13.0164658203125,-1.7134616374969482,-0.3050546646118164,0.24632865190505981
1767625017504555000,13.056554931640624,-2.164412498474121,-0.24635696411132812,0.21747863292694092
1767625017524602000,13.07660205078125,-2.312225341796875,0.18554401397705078,0.7819031476974487
1767625017544637700,13.0966376953125,-2.632288694381714,0.7815771102905273,1.7048795223236084
1767625017584724500,13.136724365234375,-3.407581329345703,1.868445873260498,2.7885303497314453
1767625017624798000,13.1767978515625,-3.3879032135009766,2.4855427742004395,2.2674167156219482
1767625017664864500,13.216864501953125,-2.862654209136963,1.8587045669555664,0.5954325199127197
1767625017704926000,13.256926025390625,-1.4896280765533447,1.3766155242919922,0.10349434614181519
1767625017724961300,13.276961181640624,-0.27372169494628906,1.0182976722717285,0.23225978016853333
1767625017745007600,13.297007568359374,0.688453197479248,0.34528255462646484,-0.06261825561523438
1767625017785070000,13.337070068359376,2.4494221210479736,-1.2327766418457031,-0.27262699604034424
1767625017825135400,13.37713525390625,4.968567848205566,-3.670696258544922,-1.4519548416137695
1767625017865205800,13.417205810546875,1.545027256011963,1.582418441772461,-1.0351841449737549
1767625017905279200,13.457279296875,-0.5927598476409912,-0.12059688568115234,4.598485946655273
1767625017925311700,13.477311767578126,-2.290226459503174,-8.01457691192627,3.431727886199951
1767625017945343700,13.49734375,-1.8844401836395264,-10.031682014465332,2.079249382019043
1767625017985422600,13.537422607421876,-1.521106481552124,3.618126392364502,3.96981143951416
1767625018025514000,13.577513916015626,-6.761627197265625,2.8245162963867188,1.6324949264526367
1767625018065591300,13.61759130859375,-3.0459446907043457,-2.582212448120117,-2.4075231552124023
1767625018105666300,13.657666259765625,-2.279665231704712,-0.7140607833862305,-1.5347166061401367
1767625018145741000,13.697740966796875,-2.4678001403808594,2.3044567108154297,3.0575673580169678
1767625018185821200,13.7378212890625,-2.184375762939453,-1.6143484115600586,0.8495321869850159
1767625018205863200,13.75786328125,-1.3682582378387451,-0.9218664169311523,-0.6234440207481384
1767625018225912300,13.777912353515624,-1.3977110385894775,0.6385059356689453,-0.49586939811706543
1767625018266009000,13.818009033203126,-1.3563047647476196,0.662653923034668,-0.9024465680122375
1767625018306116400,13.858116455078125,-0.445361852645874,0.16579437255859375,0.00007092952728271484
1767625018346221300,13.89822119140625,-0.9563456177711487,-1.0670881271362305,0.09374365210533142
1767625018366270700,13.918270751953125,-0.21382981538772583,0.18128585815429688,-0.8827102780342102
1767625018386327000,13.9383271484375,-0.17203181982040405,1.2461872100830078,-1.1574294567108154
1767625018426397200,13.978397216796875,-0.06338906288146973,-0.07571697235107422,0.6638789176940918
1767625018466494200,14.018494140625,0.31347328424453735,-0.27314090728759766,-0.1918509602546692
1767625018486542300,14.038542236328125,0.9137206077575684,0.022787094116210938,-0.2725807726383209
1767625018506611200,14.058611083984376,0.6763100028038025,0.4207782745361328,-0.30927416682243347
1767625018546709000,14.098708984375,-0.05990469455718994,-0.47664928436279297,-0.10694500803947449
1767625018586870300,14.138870361328125,0.7908803820610046,-0.856144905090332,0.13794299960136414
1767625018626962700,14.178962646484376,1.597794771194458,-1.2899894714355469,-1.6635075807571411
1767625018667048000,14.2190478515625,1.0614497661590576,-2.5670089721679688,-3.5311338901519775
1767625018707125500,14.25912548828125,1.2258604764938354,-1.4035539627075195,-0.2405499815940857
1767625018727166000,14.279166015625,0.3550906777381897,-1.3391504287719727,0.15110066533088684
1767625018747224600,14.299224609375,0.32679688930511475,0.2586374282836914,1.4351533651351929
1767625018787321900,14.33932177734375,0.2443336695432663,1.7827043533325195,2.718675136566162
1767625018827427600,14.379427490234375,-1.8812469244003296,-1.015273094177246,-0.3044593930244446
1767625018867664400,14.419664306640625,-2.920905113220215,-2.743558883666992,-1.3891997337341309
1767625018907743000,14.459742919921876,-2.6602861881256104,-1.6840801239013672,-0.4453228712081909
1767625018947852500,14.4998525390625,-2.270327568054199,-0.5654115676879883,0.0019954442977905273
1767625018967893200,14.519893310546875,-2.0688748359680176,-0.13897323608398438,0.0327458381652832
1767625018987957800,14.539957763671875,-2.2740163803100586,0.2872762680053711,0.4692491292953491
1767625019028064000,14.58006396484375,-2.975238561630249,0.8987703323364258,1.961234211921692
1767625019068177000,14.620177001953126,-3.346130132675171,1.449209213256836,2.2460014820098877
1767625019108266200,14.660266357421875,-2.5855369567871094,1.7389965057373047,1.0829366445541382
1767625019148338400,14.70033837890625,-1.9477503299713135,1.1006860733032227,0.09073561429977417
1767625019188432600,14.7404326171875,-1.2278151512145996,0.6698036193847656,0.5737835764884949
1767625019228542200,14.780542236328126,-0.7056608200073242,0.33678627014160156,0.5875194072723389
1767625019268655400,14.8206552734375,0.7867581844329834,-0.8744287490844727,0.3174650967121124
1767625019308754000,14.86075390625,2.5502066612243652,-1.8104982376098633,-0.20523017644882202
1767625019348833500,14.90083349609375,2.331615924835205,-0.3990287780761719,-1.8127822875976562
1767625019368882000,14.9208818359375,0.45299625396728516,1.8797955513000488,-1.9217945337295532
1767625019388917500,14.94091748046875,-0.4837796688079834,2.7254457473754883,-0.812483549118042
1767625019429000700,14.981000732421874,-2.2726597785949707,-5.5478105545043945,3.0046563148498535
1767625019469086700,15.021086669921875,-0.7981665134429932,-3.2326622009277344,1.434546709060669
1767625019509162000,15.061161865234375,-2.271118402481079,0.2548227310180664,2.2850823402404785
1767625019549247000,15.1012470703125,-5.120266437530518,1.7182440757751465,0.7357416152954102
1767625019589334300,15.141334228515625,-2.5751514434814453,-0.2740335464477539,-1.381067156791687
1767625019629409000,15.181408935546875,-1.8438035249710083,-1.2727012634277344,-1.4737635850906372
1767625019669498600,15.22149853515625,-1.8780021667480469,1.3995323181152344,2.2145676612854004
1767625019709601500,15.2616015625,-1.723559856414795,-0.9450473785400391,1.0129948854446411
1767625019729654500,15.281654541015625,-1.3368215560913086,-0.2018871307373047,0.9598191976547241
1767625019749716700,15.301716796875,-1.1610119342803955,0.09505558013916016,0.6168354153633118
1767625019789826000,15.341825927734375,-1.5068910121917725,-0.09720230102539062,-0.5202376246452332
1767625019809875200,15.361875244140625,-1.2673428058624268,-0.05058097839355469,-0.5116151571273804
1767625019829930500,15.381930419921876,-0.9607120156288147,-0.09386348724365234,-0.5658944249153137
1767625019870011600,15.42201171875,-0.3132336139678955,0.6236352920532227,-1.3616909980773926
1767625019910114300,15.4621142578125,-0.14561372995376587,-0.020087242126464844,-0.15863800048828125
1767625019930161000,15.482160888671874,-0.15351653099060059,0.30086231231689453,0.4581936299800873
1767625019950222600,15.50222265625,0.10722702741622925,0.1612071990966797,0.3493368923664093
1767625019990326000,15.542325927734375,1.266762375831604,0.18034934997558594,-0.14707672595977783
1767625020010381000,15.562381103515625,1.1098908185958862,-0.15108108520507812,-0.626099169254303
1767625020030444000,15.582444091796875,0.18670684099197388,-0.1815481185913086,-1.2835094928741455
1767625020070563000,15.62256298828125,-0.2688479423522949,0.5228414535522461,-0.8319904804229736
1767625020090610700,15.642610595703125,0.5367162227630615,0.2020425796508789,-0.344695121049881
1767625020110646300,15.662646240234375,0.8110831379890442,-0.03235816955566406,0.3876033425331116
1767625020150755800,15.702755859375,0.4194803833961487,-0.42801380157470703,0.6689101457595825
1767625020190873300,15.742873291015625,1.264215111732483,-0.6969642639160156,-0.9490240812301636
1767625020230966500,15.782966552734376,-0.6768016815185547,-2.885748863220215,-3.111203670501709
1767625020271047700,15.823047607421875,0.9217787384986877,-2.4255475997924805,-1.7189712524414062
1767625020311150800,15.86315087890625,1.2233843803405762,-0.9528799057006836,-0.3241306245326996
1767625020331206100,15.8832060546875,1.4795832633972168,0.4282102584838867,0.6108133792877197
1767625020351240400,15.903240478515626,0.7351999282836914,1.3436813354492188,1.3089174032211304
1767625020371280000,15.92327978515625,0.6062012910842896,1.8520450592041016,1.4654879570007324
1767625020391326000,15.943325927734374,-0.9995932579040527,1.6832857131958008,0.43628042936325073
1767625020431407000,15.983406982421876,-4.089226245880127,-2.503525733947754,-2.105118989944458
1767625020471479000,16.02347900390625,-4.039907455444336,-2.662520408630371,-3.190217971801758
1767625020511557400,16.063557373046876,-2.610173225402832,-1.2543754577636719,-2.7463650703430176
1767625020551644700,16.103644775390624,-3.0273704528808594,-0.8882980346679688,-2.077038526535034
1767625020591726000,16.14372607421875,-3.848961114883423,0.06512928009033203,-1.1351127624511719
1767625020631830500,16.18383056640625,-5.055603981018066,0.3386697769165039,-0.2025701403617859
1767625020671929600,16.2239296875,-4.820738792419434,-0.12438583374023438,0.7159060835838318
1767625020691973400,16.243973388671876,-4.201841831207275,-0.1128082275390625,0.7067185640335083
1767625020712025900,16.26402587890625,-3.1724915504455566,-0.3994255065917969,0.5080994963645935
1767625020732059000,16.284058837890626,-2.3457674980163574,-0.557408332824707,0.0839490294456482
1767625020752105500,16.30410546875,-1.9184235334396362,-0.6298370361328125,-0.025811612606048584
1767625020792192000,16.34419189453125,-2.6146163940429688,-1.268056869506836,-0.4193854033946991
1767625020832257800,16.3842578125,-1.5241990089416504,-0.03405570983886719,2.3545384407043457
1767625020872340700,16.4243408203125,-0.9440107345581055,0.7673053741455078,0.43156421184539795
1767625020892382000,16.4443818359375,-0.9277797937393188,0.3823814392089844,-2.169863224029541
1767625020912438500,16.4644384765625,-0.671504020690918,-0.013368606567382812,-3.744616985321045
1767625020932482000,16.48448193359375,-2.0475716590881348,-0.07464218139648438,-4.473791122436523
1767625020952532200,16.5045322265625,-2.8204736709594727,0.6671962738037109,-4.3088698387146
1767625020992631300,16.54463134765625,-2.3288583755493164,0.2393789291381836,-2.916051149368286
1767625021032723500,16.584723388671875,-0.7654521465301514,-3.581631660461426,3.183852195739746
1767625021072791300,16.624791259765626,0.1023416519165039,1.6137828826904297,3.701014280319214
1767625021112870400,16.664870361328123,-3.3412203788757324,-1.3780937194824219,-1.8616777658462524
1767625021132905200,16.6849052734375,-2.6251392364501953,-1.6079044342041016,-2.4416942596435547
1767625021152960300,16.704960205078127,-0.8477165699005127,-0.5220327377319336,-2.246033191680908
1767625021193051100,16.745051025390627,-0.5351689457893372,1.1471920013427734,-0.7765750885009766
1767625021213088500,16.765088623046875,-0.4675661027431488,1.2465734481811523,0.03745412826538086
1767625021233151700,16.78515185546875,0.13417404890060425,0.3834829330444336,0.8950839042663574
1767625021253203200,16.805203125,0.2491331696510315,-0.45336151123046875,0.4977104663848877
1767625021273261600,16.825261474609373,0.08271655440330505,-0.10672283172607422,-1.5175328254699707
1767625021313339000,16.8653388671875,-0.5353327989578247,-0.15801143646240234,-3.354881525039673
1767625021353422000,16.905422119140624,-1.4904539585113525,-0.8591823577880859,-1.245764970779419
1767625021373468000,16.925468017578126,-0.5147308707237244,0.1323566436767578,-0.40265724062919617
1767625021393521400,16.945521484375,-0.36574220657348633,0.3012580871582031,-0.613145649433136
1767625021433630200,16.985630126953126,-0.9323232173919678,-0.007384300231933594,-1.4957488775253296
1767625021473734700,17.025734619140625,-1.0961273908615112,0.21105575561523438,-1.1854925155639648
1767625021493779500,17.045779541015627,-1.2602612972259521,0.1349639892578125,-0.7365248203277588
1767625021513838300,17.06583837890625,-1.2458512783050537,0.14051151275634766,-0.46126261353492737
1767625021533888800,17.085888671875,-1.0704469680786133,0.06111431121826172,0.3907289505004883
1767625021553924000,17.105924072265626,-0.6533383131027222,-0.28907203674316406,0.03778773546218872
1767625021594028300,17.1460283203125,-0.3018866777420044,0.4840116500854492,0.43183019757270813
1767625021614073000,17.166072998046875,0.6322656273841858,-0.6511220932006836,-1.2164705991744995
1767625021634134000,17.186134033203125,0.3260533809661865,-0.2491912841796875,-0.14943301677703857
1767625021674234600,17.226234619140627,0.22376704216003418,0.10018539428710938,0.010004520416259766
1767625021714342000,17.266341796875,0.455227255821228,0.23522567749023438,-0.11357903480529785
1767625021754444500,17.306444580078125,0.8953597545623779,-0.36418819427490234,-0.8068317174911499
1767625021774494500,17.326494384765624,0.750088632106781,-0.34241485595703125,-1.4775242805480957
1767625021794531300,17.34653125,0.907215416431427,-0.8284702301025391,-1.6003262996673584
1767625021834642000,17.386641845703124,0.6772565841674805,-1.6443405151367188,-2.298853874206543
1767625021854692600,17.406692626953124,1.0390411615371704,-1.7436408996582031,-1.7728710174560547
1767625021874758100,17.426758056640626,2.090391159057617,-1.469956398010254,-0.7467568516731262
1767625021914852600,17.4668525390625,2.073370933532715,-1.0877494812011719,-0.675412654876709
1767625021954964200,17.506964111328124,1.1991909742355347,-0.44718074798583984,-1.0856692790985107
1767625021995069000,17.54706884765625,0.8989723920822144,0.8934497833251953,-0.34497517347335815
1767625022035156200,17.58715625,-0.8500826358795166,-0.34749698638916016,0.25011730194091797
1767625022075254300,17.627254150390623,-1.9417707920074463,-1.5694913864135742,-0.11007767915725708
1767625022095304200,17.64730419921875,-2.058623790740967,-0.930262565612793,-1.0089240074157715
1767625022115370500,17.66737060546875,-2.387545347213745,-0.7835988998413086,-2.0153324604034424
1767625022155483400,17.7074833984375,-2.3963770866394043,-1.3172883987426758,-1.689130187034607
1767625022195597800,17.747597900390623,-2.190631866455078,-1.0816736221313477,0.2023218274116516
1767625022235703300,17.787703369140626,-1.8873264789581299,-0.21921634674072266,0.5592167377471924
1767625022275791000,17.827791015625,-1.757191777229309,0.3667163848876953,1.6439290046691895
1767625022315896000,17.86789599609375,-2.2780933380126953,0.4290142059326172,1.6421937942504883
1767625022335948500,17.887948486328124,-2.6085546016693115,0.3486948013305664,1.6653785705566406
1767625022356013600,17.908013671875,-2.527700901031494,0.81268310546875,1.662173867225647
1767625022396122600,17.94812255859375,-2.111135721206665,1.3501157760620117,1.6755964756011963
1767625022436229000,17.98822900390625,-2.1479978561401367,1.4202046394348145,1.5421903133392334
1767625022476327400,18.028327392578124,-1.5398051738739014,1.3237805366516113,1.5547735691070557
1767625022516414200,18.068414306640626,-0.27072620391845703,0.4782419204711914,1.436617136001587
1767625022556520000,18.10852001953125,0.7444131374359131,-0.5014686584472656,0.48648005723953247
1767625022596604000,18.14860400390625,2.0761046409606934,-1.1492023468017578,-0.0453527569770813
1767625022636690400,18.1886904296875,2.900841236114502,-1.1799840927124023,-1.3965034484863281
1767625022676780300,18.2287802734375,1.7206897735595703,0.6860523223876953,-0.6116310954093933
1767625022716880100,18.268880126953125,-0.508676290512085,-3.1975536346435547,2.224897861480713
1767625022736913200,18.2889130859375,-1.6042574644088745,-4.156342506408691,1.9012126922607422
1767625022757043200,18.309043212890625,-1.2069839239120483,-2.5152158737182617,1.6849796772003174
1767625022797123000,18.349123046875,0.44651150703430176,1.141916275024414,3.5241456031799316
1767625022817164000,18.3691640625,-0.09026622772216797,1.7864470481872559,3.603250503540039
1767625022837217000,18.389217041015623,-3.975742816925049,2.0070090293884277,1.31779146194458
1767625022877299500,18.429299560546873,-2.4834084510803223,0.24957847595214844,-0.3207551836967468
1767625022917384000,18.469384033203124,-1.3320643901824951,-0.7569360733032227,-0.5839183330535889
1767625022957475600,18.5094755859375,-0.7277719378471375,-0.1572732925415039,1.209630012512207
1767625022997553200,18.54955322265625,-1.2654109001159668,-0.1633157730102539,2.2790873050689697
1767625023017599000,18.569598876953126,-1.3096530437469482,-0.1540393829345703,2.054591178894043
1767625023037651500,18.5896513671875,-1.215222716331482,0.031711578369140625,0.9809081554412842
1767625023057698600,18.609698486328124,-1.1570301055908203,0.11957645416259766,0.11904197931289673
1767625023077759500,18.629759521484374,-1.0779378414154053,0.1999826431274414,-0.2127862572669983
1767625023117857300,18.669857177734375,-1.327005386352539,0.44385528564453125,0.5386562347412109
1767625023157964300,18.70996435546875,-0.4906456470489502,0.08669281005859375,-0.39816248416900635
1767625023198067200,18.750067138671874,-0.1280420422554016,-0.08373069763183594,0.23805660009384155
1767625023218114600,18.770114501953124,-0.31099534034729004,0.021558761596679688,0.5885605812072754
1767625023238151400,18.7901513671875,-0.30956578254699707,-0.11075973510742188,0.8984384536743164
1767625023278253800,18.83025390625,0.4401366114616394,-0.19787025451660156,-0.0022912025451660156
1767625023318361600,18.870361572265626,0.8765321373939514,-0.06475257873535156,-0.04495483636856079
1767625023358467600,18.910467529296874,0.5597072243690491,0.1169586181640625,-0.5107449889183044
1767625023398572500,18.950572509765625,0.47709202766418457,0.242340087890625,-0.6074634790420532
1767625023438680800,18.990680908203124,0.42197203636169434,0.06927776336669922,0.08176201581954956
1767625023458730800,19.010730712890624,0.9102692604064941,0.07035064697265625,0.32999008893966675
1767625023478763000,19.030762939453126,0.9720373749732971,-0.2071819305419922,0.18242907524108887
1767625023518869500,19.070869384765626,0.897973358631134,-0.4135751724243164,-0.31085702776908875
1767625023558985200,19.110985107421875,1.3940666913986206,-0.6578350067138672,-0.9726097583770752
1767625023599083300,19.151083251953125,0.9222594499588013,-2.660893440246582,-2.2842633724212646
1767625023639170800,19.1911708984375,1.6827938556671143,-2.3381595611572266,-0.319617360830307
1767625023679263500,19.231263427734376,1.6468212604522705,-0.4998130798339844,1.3431687355041504
1767625023719344000,19.27134423828125,0.73590487241745,0.8111085891723633,2.044598340988159
1767625023759459300,19.311459228515623,-0.34068721532821655,0.10199737548828125,3.526336669921875
1767625023779513000,19.33151318359375,-2.0138721466064453,-0.9461116790771484,2.544588327407837
1767625023799580400,19.351580322265626,-2.8052566051483154,-2.6170711517333984,1.2590328454971313
1767625023839667200,19.391667236328125,-1.9195806980133057,-2.4672393798828125,1.2570513486862183
1767625023859706400,19.411706298828125,-2.2614364624023438,-1.521113395690918,1.357771635055542
1767625023879768600,19.4317685546875,-1.6191205978393555,-0.6169452667236328,0.646165132522583
1767625023919865000,19.471864990234376,-1.5999019145965576,-0.3141813278198242,0.2543453574180603
1767625023959944700,19.51194482421875,-1.8127849102020264,0.6811800003051758,1.6348986625671387
1767625024000038100,19.5520380859375,-2.3361401557922363,2.263178825378418,3.5378642082214355
1767625024040131300,19.59213134765625,-3.187340259552002,2.78841495513916,1.9451310634613037
1767625024080226000,19.63222607421875,-1.984264850616455,1.1876626014709473,0.1396973729133606
1767625024100278800,19.65227880859375,-1.4905200004577637,1.0102033615112305,-0.5428963303565979
1767625024120333000,19.6723330078125,-1.0521247386932373,0.7298479080200195,-0.7310706377029419
1767625024160431000,19.71243115234375,-0.5417170524597168,0.8551626205444336,-0.3677296042442322
1767625024200514000,19.75251416015625,0.12624001502990723,0.13310527801513672,-0.13176685571670532
1767625024240621800,19.792621826171874,2.4686806201934814,-0.9814558029174805,0.22626706957817078
1767625024260671200,19.812671142578125,3.3329014778137207,-1.9925727844238281,0.038446903228759766
1767625024280721400,19.832721435546876,3.9716718196868896,-2.1153345108032227,-0.1740943193435669
1767625024300758800,19.8527587890625,3.920281171798706,-1.4266586303710938,-0.11179769039154053
1767625024320798500,19.872798583984373,2.4525325298309326,0.8462467193603516,0.42257046699523926
1767625024360880600,19.912880615234375,-0.9743845462799072,0.2955942153930664,2.7272539138793945
1767625024400973300,19.952973388671875,-3.3099892139434814,-3.1356658935546875,4.739334583282471
1767625024441053000,19.993052978515625,-0.2539050579071045,-2.614882469177246,0.3524637818336487
1767625024481140000,20.033139892578124,-1.7517507076263428,2.347374439239502,0.7662139534950256
1767625024521228800,20.073228759765627,-4.525792598724365,1.6557507514953613,2.195748805999756
1767625024560410600,20.11241064453125,-1.2923334836959839,-1.1771507263183594,0.06852144002914429
1767625024600497000,20.152496826171873,-0.5838416218757629,0.062458038330078125,0.03786766529083252
1767625024620613000,20.172613037109375,-0.898083508014679,0.17989158630371094,0.6075833439826965
1767625024640671500,20.19267138671875,-1.7464089393615723,-0.13109779357910156,0.8225892186164856
1767625024680742100,20.2327421875,-2.6991991996765137,-0.4278421401977539,1.9028959274291992
1767625024700778800,20.25277880859375,-1.7597544193267822,-0.06148815155029297,1.9100983142852783
1767625024720829700,20.27282958984375,-0.8486232161521912,0.41750144958496094,0.7668153047561646
1767625024740875000,20.292875,-1.0205614566802979,0.39963245391845703,0.7622849345207214
1767625024760935400,20.312935302734374,-1.173654317855835,0.4532032012939453,0.5365378856658936
1767625024801037000,20.353037109375,-0.4843284487724304,-0.3970918655395508,0.18862056732177734
1767625024841146400,20.393146484375,0.5534828901290894,0.236297607421875,-0.02967095375061035
1767625024881247000,20.4332470703125,-0.10555458068847656,-0.04228401184082031,-0.041703879833221436
1767625024921329200,20.4733291015625,0.8877381086349487,0.06423473358154297,0.4805305004119873
1767625024961435400,20.513435302734376,0.9534893035888672,0.2872629165649414,-0.177814781665802
1767625024981481200,20.533481201171874,0.9226426482200623,0.2875947952270508,-0.6743096709251404
1767625025001537000,20.553537109375,0.5856118202209473,0.05689811706542969,-1.353482723236084
1767625025041631500,20.593631591796875,-0.15440404415130615,-0.05619621276855469,-2.250633716583252
1767625025061678600,20.6136787109375,-0.24365854263305664,-0.49128246307373047,-2.555323839187622
1767625025081734400,20.633734375,0.07068765163421631,-0.3580923080444336,-1.0751771926879883
1767625025121828000,20.673828125,1.725801706314087,-1.0334463119506836,1.4803112745285034
1767625025161897000,20.71389697265625,1.848297357559204,-1.0104846954345703,0.9833025932312012
1767625025201989000,20.753989013671877,1.3477461338043213,-2.093785285949707,-2.8962626457214355
1767625025222026800,20.77402685546875,1.255746841430664,-1.8644332885742188,-3.2519125938415527
1767625025242093000,20.794093017578124,1.4501254558563232,-2.1287641525268555,-2.2594964504241943
1767625025282180400,20.834180419921875,2.538518190383911,-0.6415586471557617,-0.13512451946735382
1767625025322260200,20.87426025390625,1.9358019828796387,1.002309799194336,1.1383548974990845
1767625025362359000,20.914359130859374,0.006691008806228638,1.083390235900879,2.8392608165740967
1767625025402445300,20.9544453125,-1.9187620878219604,-1.8938331604003906,0.9513269066810608
1767625025422481000,20.97448095703125,-3.318277597427368,-3.1633291244506836,0.27373188734054565
1767625025442519000,20.99451904296875,-2.534842014312744,-3.1015682220458984,0.5297724008560181
1767625025462552800,21.014552734375,-1.619601845741272,-2.65999698638916,0.8269008994102478
1767625025482600400,21.034600341796875,-1.2883570194244385,-1.9842729568481445,1.0018296241760254
1767625025522689800,21.074689697265626,-0.8463836908340454,-0.4283170700073242,0.4036208391189575
1767625025562790000,21.114789794921876,-1.5892999172210693,-0.6667985916137695,-0.38650041818618774
1767625025602890500,21.154890380859374,-2.1034162044525146,1.052809715270996,2.4767544269561768
1767625025642960000,21.1949599609375,-3.5177969932556152,3.257087230682373,2.971895456314087
1767625025683036200,21.2350361328125,-3.213779926300049,3.577512741088867,1.7387275695800781
1767625025703074300,21.25507421875,-2.703029155731201,2.6202468872070312,0.5197425484657288
1767625025723124700,21.275124755859373,-1.9160592555999756,2.1010303497314453,0.0712968111038208
1767625025763201000,21.315200927734374,-0.4120657444000244,1.4775280952453613,0.25064414739608765
1767625025803295000,21.355294921875,0.6429243087768555,0.45069408416748047,-0.7510756254196167
1767625025843375900,21.3953759765625,4.017746925354004,-3.3687562942504883,-1.782958984375
1767625025863418400,21.41541845703125,5.792384147644043,-3.8336410522460938,-0.5120291709899902
1767625025883453400,21.435453369140625,4.592660903930664,-2.9368820190429688,0.4077814817428589
1767625025923531500,21.475531494140625,1.849440097808838,3.3210043907165527,0.6265302896499634
1767625025963616500,21.515616455078124,-3.008708953857422,-5.0191802978515625,4.865988254547119
1767625026003689200,21.555689208984376,-1.682889699935913,-3.50921630859375,-0.45196226239204407
1767625026023722000,21.575721923828127,-1.7001579999923706,1.8991470336914062,0.39447104930877686
1767625026043763500,21.595763427734376,-0.20134449005126953,4.0640411376953125,4.640551567077637
1767625026083835000,21.6358349609375,-4.739192485809326,1.1373023986816406,1.2710151672363281
1767625026123896800,21.675896728515625,-2.286393165588379,-2.3697166442871094,-3.117938280105591
1767625026163971800,21.715971923828125,-0.6886301636695862,1.771010398864746,0.7940061092376709
1767625026184007200,21.736007080078124,-0.8997485637664795,0.6152181625366211,0.789402961730957
1767625026204059400,21.756059326171876,-0.8485327959060669,-1.170919418334961,1.082219123840332
1767625026244144600,21.79614453125,-1.2615859508514404,-0.028580665588378906,1.4333213567733765
1767625026284228600,21.836228515625,-0.9264078736305237,0.6636543273925781,0.4610004425048828
1767625026324309800,21.876309814453126,-1.6017380952835083,0.34676361083984375,-0.5529670715332031
1767625026344352300,21.896352294921876,-1.3688398599624634,0.36403846740722656,-0.710526704788208
1767625026364380700,21.916380615234374,-1.2333987951278687,0.3334465026855469,-1.1423470973968506
1767625026404474000,21.95647412109375,-0.3292474150657654,0.3761882781982422,0.094696044921875
1767625026424518400,21.976518310546876,-0.061769068241119385,0.25501251220703125,0.2951408922672272
1767625026444579800,21.996579833984374,-0.04094511270523071,0.013615608215332031,0.40452128648757935
1767625026484683800,22.036683837890624,-0.133459210395813,-0.40484046936035156,-0.15855887532234192
1767625026504728000,22.05672802734375,0.07151329517364502,-0.23211193084716797,-0.5651373863220215
1767625026524785000,22.076784912109375,0.5844556093215942,-0.04411506652832031,-0.7554284930229187
1767625026544830700,22.096830810546876,1.101289987564087,0.11162567138671875,-0.8730044960975647
1767625026564885500,22.116885498046877,1.3781030178070068,0.14398479461669922,-0.9163366556167603
1767625026604962800,22.156962890625,0.9018523693084717,-0.02684307098388672,-0.2993023693561554
1767625026625009700,22.177009765625,0.4135270118713379,-0.009676933288574219,0.0759849101305008
1767625026645070600,22.197070556640625,0.5881820917129517,0.0934133529663086,0.1187865287065506
1767625026665122300,22.217122314453125,0.7821434736251831,-0.29894447326660156,-0.061671435832977295
1767625026685184800,22.237184814453126,0.8303051590919495,-0.7707939147949219,-0.18731968104839325
1767625026725288000,22.277287841796873,1.6275883913040161,-0.9311294555664062,0.011406362056732178
1767625026745338000,22.297338134765624,2.176424503326416,-0.6875677108764648,-0.1321384757757187
1767625026765400300,22.317400390625,2.21747088432312,-0.8382225036621094,-0.8517632484436035
1767625026805488600,22.357488525390625,0.6070446968078613,-2.9992446899414062,-3.217181444168091
1767625026825522200,22.377522216796876,1.480316400527954,-1.866708755493164,-3.2379822731018066
1767625026845551400,22.39755126953125,1.8404479026794434,-1.7807435989379883,-1.897803544998169
1767625026885641000,22.437640869140626,1.5246610641479492,-0.31627368927001953,1.0507649183273315
1767625026905676500,22.457676513671874,-0.04214632511138916,0.6861429214477539,1.9278143644332886
1767625026925729500,22.4777294921875,-0.9470809698104858,1.0248022079467773,2.8225998878479004
1767625026965810700,22.517810791015624,-2.081294298171997,-1.5017786026000977,2.037423849105835
1767625026985854000,22.53785400390625,-1.914320945739746,-2.5607481002807617,0.4391600787639618
1767625027005895200,22.557895263671874,-2.229977607727051,-2.426150321960449,-1.134285807609558
1767625027045980000,22.59797998046875,-2.282426118850708,-1.1015968322753906,-1.0520668029785156
1767625027086071300,22.6380712890625,-1.9547572135925293,-0.13655376434326172,-0.5214481353759766
1767625027126181000,22.67818115234375,-2.086529016494751,0.32854652404785156,-0.19499880075454712
1767625027166297300,22.71829736328125,-2.4437079429626465,0.5782499313354492,1.1690595149993896
1767625027206390300,22.758390380859375,-2.777132987976074,1.78413724899292,2.556793212890625
1767625027246474500,22.798474609375,-3.0822837352752686,2.0335097312927246,1.1497409343719482
1767625027266511400,22.818511474609377,-2.7876811027526855,1.240344524383545,-0.21441781520843506
1767625027286553600,22.8385537109375,-2.0305891036987305,0.6815290451049805,-0.49353957176208496
1767625027326626800,22.878626708984374,-1.3343901634216309,0.6937065124511719,0.37001726031303406
1767625027366733600,22.918733642578125,-0.8631789684295654,0.4219226837158203,0.9670537710189819
1767625027386791400,22.93879150390625,0.009079456329345703,-0.1006326675415039,1.024489164352417
1767625027406857700,22.958857666015625,1.1882498264312744,-0.8205747604370117,0.6873220205307007
1767625027446948000,22.998947998046877,4.001521110534668,-2.301102638244629,-1.3761497735977173
1767625027487019300,23.039019287109376,0.6747462749481201,-0.9297475814819336,-1.4161772727966309
1767625027507053800,23.0590537109375,-0.24722051620483398,2.508598804473877,-1.1909736394882202
1767625027527094000,23.079093994140624,0.04101109504699707,1.2084012031555176,1.9994059801101685
1767625027567164700,23.11916455078125,-1.816997766494751,-7.262354850769043,3.0734994411468506
1767625027607241700,23.15924169921875,-2.7269821166992188,1.2331228256225586,2.152714252471924
1767625027647329000,23.1993291015625,-5.967250347137451,1.9660964012145996,-0.32697218656539917
1767625027687416300,23.239416259765626,-2.958848237991333,-1.2564220428466797,-1.266350507736206
1767625027727496400,23.279496337890624,-2.274327039718628,-0.8979959487915039,-1.1552380323410034
1767625027767577300,23.319577392578125,-2.20552921295166,2.1141767501831055,1.196864366531372
1767625027807647500,23.3596474609375,-1.3133212327957153,-0.9490642547607422,-0.10782822966575623
1767625027847727900,23.399727783203126,-1.1874538660049438,-0.7306938171386719,-0.0975567102432251
1767625027887834600,23.439834716796874,-0.5290782451629639,-0.020836830139160156,-0.06623861193656921
1767625027927936300,23.479936279296876,-1.238775372505188,0.8478107452392578,-1.537014365196228
1767625027947989000,23.499989013671875,-1.7189942598342896,0.6039924621582031,-1.3036442995071411
1767625027968044300,23.520044189453124,-1.4095561504364014,0.09801197052001953,0.11744564771652222
1767625028008151000,23.560151123046875,-0.008055001497268677,0.20965576171875,0.317030668258667
1767625028028202800,23.58020263671875,0.3819568157196045,-0.013439178466796875,-0.012265011668205261
1767625028048238000,23.600238037109374,0.28185996413230896,-0.004387855529785156,-0.07750262320041656
1767625028088358700,23.640358642578125,1.0114142894744873,-0.48058414459228516,-0.6378533840179443
1767625028108405000,23.660405029296875,1.0844829082489014,-0.12152767181396484,-0.7285016179084778
1767625028128466000,23.6804658203125,1.3772625923156738,0.009667396545410156,-1.0821598768234253
1767625028168570400,23.7205703125,0.06677639484405518,0.5248193740844727,-0.440637469291687
1767625028208672300,23.76067236328125,1.5543558597564697,-0.6275720596313477,2.1833083629608154
1767625028248757500,23.800757568359376,0.06885707378387451,-0.6998682022094727,-2.436037302017212
1767625028268794600,23.820794677734376,-0.11618280410766602,-0.7555332183837891,-3.72047758102417
1767625028288827000,23.840826904296875,-0.5558212399482727,-2.7102012634277344,-3.4524459838867188
1767625028328902100,23.880902099609376,0.6166337728500366,-2.4912643432617188,-1.5222686529159546
1767625028368996900,23.920996826171876,0.897875189781189,-0.8376016616821289,-1.858781337738037
1767625028389041200,23.941041259765626,-0.333708256483078,-0.019983291625976562,-1.3421276807785034
1767625028409094000,23.961093994140626,-0.5397865176200867,0.2610645294189453,-0.013706162571907043
1767625028449209300,24.001209228515624,-1.185075044631958,0.3746452331542969,-0.5731649398803711
1767625028489316000,24.041316162109375,-3.641111135482788,-1.2472972869873047,-1.8651286363601685
1767625028529394700,24.081394775390624,-4.225494384765625,-2.44083309173584,-3.0329949855804443
1767625028569491000,24.121490966796873,-3.3187825679779053,-0.6582250595092773,-4.306128025054932
1767625028589535700,24.14153564453125,-3.4304747581481934,-0.45464038848876953,-3.9671826362609863
1767625028609597000,24.161596923828125,-3.5284414291381836,-0.7926845550537109,-3.515556812286377
1767625028649706200,24.201706298828125,-5.78945255279541,-0.9974355697631836,-1.9354689121246338
1767625028689798400,24.24179833984375,-5.115026473999023,-1.0749588012695312,-1.6071224212646484
1767625028729884700,24.281884765625,-3.561641216278076,-0.29282188415527344,-0.28084686398506165
1767625028769958700,24.321958740234376,-3.324666976928711,-0.07887649536132812,-0.7408745288848877
1767625028810060800,24.362060791015626,-2.9117202758789062,-2.0054845809936523,0.23753274977207184
1767625028850176500,24.402176513671876,-1.8072288036346436,-1.1189603805541992,1.2543843984603882
1767625028890284000,24.442283935546875,-1.8546876907348633,1.2804679870605469,1.2036705017089844
1767625028910329000,24.4623291015625,-2.2743494510650635,2.328758716583252,0.6084807515144348
1767625028930380000,24.482380126953124,-2.498887777328491,2.238096237182617,-0.8605034947395325
1767625028950421000,24.5024208984375,-1.9868769645690918,1.5120501518249512,-2.589108943939209
1767625028970473000,24.522472900390625,-1.067565679550171,0.6445255279541016,-4.159318923950195
1767625029010541800,24.562541748046876,-0.22647643089294434,-0.7381553649902344,-4.11436128616333
1767625029030592000,24.582592041015626,-0.1063070297241211,-0.8806982040405273,-2.9430222511291504
1767625029050652700,24.602652587890624,-0.01241922378540039,-0.5473232269287109,-2.230241298675537
1767625029070698500,24.622698486328126,0.2602987289428711,-0.09627819061279297,-1.8304253816604614
1767625029090734300,24.642734375,0.23506522178649902,0.4572877883911133,-1.004054307937622
1767625029130830300,24.682830322265627,-1.4750696420669556,0.8908967971801758,0.2200438678264618
1767625029170911700,24.722911865234376,-0.43340206146240234,-5.815450668334961,0.5362868309020996
1767625029210994200,24.762994140625,0.9253828525543213,-0.6226301193237305,1.4529287815093994
1767625029251069700,24.803069580078127,-4.780398845672607,-0.1512317657470703,-1.120301365852356
1767625029291139000,24.84313916015625,-1.4992501735687256,2.659170627593994,0.33797407150268555
1767625029311174100,24.863174072265625,-1.027907133102417,-0.13053512573242188,-2.404566526412964
1767625029331220700,24.883220703125,-1.5641883611679077,-1.617396354675293,-3.744753122329712
1767625029371300600,24.923300537109377,-1.4496543407440186,-0.046276092529296875,0.08901506662368774
1767625029411392300,24.963392333984373,-1.170292615890503,0.37831687927246094,-0.4707777500152588
1767625029431435300,24.983435302734375,-1.2838176488876343,0.0006914138793945312,-1.7819740772247314
1767625029451495000,25.003494873046876,-1.125152587890625,-0.032380104064941406,-1.9355475902557373
1767625029491571000,25.043571044921876,-0.9168229103088379,0.45645809173583984,-1.2215055227279663
1767625029531686400,25.083686279296874,-0.3325193226337433,0.06032276153564453,-1.1776094436645508
1767625029551739000,25.10373876953125,-0.1382344663143158,-0.029466629028320312,-1.01329505443573
1767625029571871500,25.12387158203125,-0.03529897332191467,0.057908058166503906,-0.7799027562141418
1767625029611976400,25.1639765625,-0.3953261375427246,0.010610580444335938,0.24203938245773315
1767625029652085000,25.2040849609375,-0.3663893938064575,0.04152202606201172,-0.6722714900970459
1767625029692191500,25.24419140625,0.12949085235595703,-0.2565269470214844,-0.8980220556259155
1767625029712243000,25.264242919921877,0.35116147994995117,-0.3814888000488281,-0.6968913078308105
1767625029732281900,25.28428173828125,0.8597861528396606,0.15509319305419922,-0.8338751792907715
1767625029772386600,25.324386474609376,1.085925817489624,0.13373088836669922,-0.11209553480148315
1767625029792438300,25.344438232421876,0.2898954153060913,-0.24829483032226562,1.0042343139648438
1767625029812502300,25.364502197265626,0.8762749433517456,-0.8766136169433594,0.9081454277038574
1767625029852617000,25.404616943359375,1.2218858003616333,-0.673151969909668,-1.4847502708435059
1767625029892720600,25.444720703125,0.5507465600967407,-2.6761703491210938,-3.9884705543518066
1767625029932807200,25.48480712890625,1.3711165189743042,-2.9862852096557617,-3.5342564582824707
1767625029972885200,25.52488525390625,1.6255161762237549,-1.213907241821289,-2.134913444519043
1767625030012988000,25.56498779296875,1.1605629920959473,0.5364475250244141,-0.4705526828765869
1767625030033030700,25.58503076171875,0.6088502407073975,1.146744728088379,-0.5504053831100464
1767625030053099000,25.60509912109375,-0.23884731531143188,1.1530733108520508,-0.41577714681625366
1767625030093206300,25.645206298828125,-2.355973958969116,-0.8004875183105469,-1.1879448890686035
1767625030133300500,25.685300537109374,-3.0118565559387207,-2.4447059631347656,-0.9740756750106812
1767625030153343200,25.70534326171875,-2.6091649532318115,-1.901773452758789,-2.2790136337280273
1767625030173404000,25.72540380859375,-2.5070834159851074,-1.3889245986938477,-2.592846155166626
1767625030213487600,25.765487548828126,-2.4450814723968506,-0.8544626235961914,-1.5649744272232056
1767625030253600300,25.805600341796875,-2.668407440185547,-0.9856357574462891,-0.38776394724845886
1767625030293720800,25.845720947265626,-2.857748031616211,0.37213134765625,0.8995265960693359
1767625030333836500,25.88583642578125,-2.815001964569092,0.840550422668457,1.7959938049316406
1767625030373954600,25.92595458984375,-3.0053372383117676,0.8812808990478516,1.5584622621536255
1767625030414073600,25.966073486328124,-2.6738953590393066,1.5432462692260742,1.8204455375671387
1767625030454153700,26.00615380859375,-2.2449045181274414,1.6142182350158691,1.2064014673233032
1767625030494242300,26.0462421875,-1.5688865184783936,1.528639316558838,0.777393639087677
1767625030514282200,26.0662822265625,-0.7857513427734375,1.1560401916503906,0.8539420962333679
1767625030534338800,26.0863388671875,-0.10697793960571289,0.4289693832397461,0.35254940390586853
1767625030574433000,26.12643310546875,2.9244070053100586,-1.5664596557617188,-0.6211652755737305
1767625030614513700,26.166513671875,4.731291770935059,-3.6995983123779297,-2.5619583129882812
1767625030654596400,26.206596435546874,0.8878991603851318,2.5049357414245605,-1.9025287628173828
1767625030674632400,26.226632568359374,0.4977719783782959,3.4589362144470215,-0.3028903603553772
1767625030694666800,26.246666748046874,-0.5594546794891357,-0.8270254135131836,2.9195802211761475
1767625030714706400,26.26670654296875,-1.470444917678833,-6.120196342468262,3.3913934230804443
1767625030734752500,26.28675244140625,0.05858778953552246,-5.861940383911133,2.5637786388397217
1767625030754795000,26.306794921875,-1.6497200727462769,-2.220600128173828,1.2698982954025269
1767625030774848800,26.326848876953125,-1.9683465957641602,1.1069726943969727,2.511913776397705
1767625030794888200,26.34688818359375,-3.2875025272369385,3.0966811180114746,1.2036644220352173
1767625030814931000,26.366930908203123,-5.022146701812744,3.0597901344299316,0.6892445087432861
1767625030834971000,26.386970947265624,-5.007954120635986,1.258056640625,-0.09842734038829803
1767625030855021600,26.407021484375,-2.926785945892334,-1.6156082153320312,-1.3521944284439087
1767625030875061000,26.42706103515625,-1.7314906120300293,-2.6616430282592773,-2.081669330596924
1767625030895105000,26.44710498046875,-1.8443899154663086,-0.7596588134765625,-1.6729779243469238
1767625030935183600,26.48718359375,-1.2469944953918457,2.3029403686523438,2.802216053009033
1767625030975264000,26.527263916015624,-1.3065502643585205,-1.4605188369750977,-0.006468608975410461
1767625031015355400,26.56735546875,-0.7011223435401917,0.2474222183227539,-0.5151964426040649
1767625031055466000,26.607466064453124,-1.6297416687011719,0.7813453674316406,-0.24524813890457153
1767625031095562500,26.6475625,-1.5181803703308105,0.1049509048461914,0.14447246491909027
1767625031135655400,26.687655517578126,0.00890052318572998,0.23957061767578125,0.48873835802078247
1767625031175729400,26.7277294921875,0.0709679126739502,0.17777061462402344,1.5081743001937866
1767625031215830500,26.76783056640625,0.5133534073829651,-0.030671119689941406,0.25052666664123535
1767625031235877400,26.78787744140625,0.9124263525009155,-0.2739906311035156,-0.3297691345214844
1767625031255939600,26.807939697265624,0.8895925879478455,-0.567011833190918,-0.8004024624824524
1767625031296050000,26.8480498046875,1.1059644222259521,-0.4898977279663086,-1.5990617275238037
1767625031316096500,26.868096435546875,1.140232801437378,0.16756153106689453,-1.4075050354003906
1767625031336153300,26.8881533203125,0.8720371127128601,-0.09560585021972656,-0.8167775869369507
1767625031376259800,26.928259765625,1.039769172668457,-0.533238410949707,-0.054432421922683716
1767625031396312800,26.948312744140626,1.0479437112808228,-0.5001440048217773,-0.45421093702316284
1767625031416347400,26.968347412109374,1.6997826099395752,-0.6852350234985352,-0.6531938314437866
1767625031456451600,27.00845166015625,1.279942274093628,-3.016876220703125,-3.041063070297241
1767625031496542200,27.048542236328124,2.2917957305908203,-1.5576295852661133,-1.4011083841323853
1767625031516589300,27.06858935546875,2.0812814235687256,-1.0265998840332031,-0.7294880151748657
1767625031536639700,27.0886396484375,1.1607073545455933,-0.9611320495605469,0.5517258048057556
1767625031576730400,27.12873046875,-0.7356348037719727,-0.24620532989501953,4.439743518829346
1767625031616821000,27.168821044921874,-2.3987088203430176,-1.0799694061279297,4.196109294891357
1767625031656905200,27.2089052734375,-3.095456123352051,-3.743743896484375,0.2664601504802704
1767625031696986600,27.248986572265625,-2.3639354705810547,-1.421158790588379,0.22001606225967407
1767625031717030400,27.269030517578123,-2.907480478286743,-0.6170005798339844,1.6261934041976929
1767625031737086200,27.289086181640624,-2.369980812072754,-0.10156536102294922,1.6732444763183594
1767625031777177300,27.32917724609375,-2.3566174507141113,0.5311269760131836,0.7093713879585266
1767625031817267700,27.369267822265623,-2.8706166744232178,1.3106799125671387,3.001849889755249
1767625031857357000,27.409357177734375,-3.340219020843506,2.51284122467041,3.9830479621887207
1767625031897422800,27.4494228515625,-3.5781140327453613,2.42225980758667,1.5052592754364014
1767625031917454600,27.46945458984375,-3.188629388809204,1.7105755805969238,-0.031905531883239746
1767625031937494500,27.48949462890625,-2.4246578216552734,1.1941418647766113,-0.8443863391876221
1767625031957534200,27.5095341796875,-1.1543233394622803,0.8578381538391113,-1.0520423650741577
1767625031977592800,27.5295927734375,0.14685344696044922,0.6744747161865234,-1.0102958679199219
1767625032017684700,27.569684814453126,0.9128141403198242,-0.15787315368652344,-0.48786213994026184
1767625032057790700,27.609790771484374,3.1265361309051514,-1.7767953872680664,-0.5235313773155212
1767625032097879300,27.64987939453125,3.631774663925171,-2.0202035903930664,1.5629452466964722
1767625032137949700,27.68994970703125,1.534250259399414,2.0328450202941895,1.3168816566467285
1767625032178034200,27.7300341796875,-1.125375509262085,-0.6056861877441406,3.357257843017578
1767625032218124500,27.77012451171875,-2.1142845153808594,-7.943514823913574,2.0247020721435547
1767625032258214000,27.8102138671875,-2.22993803024292,1.3658766746520996,2.6317832469940186
1767625032278254800,27.8302548828125,0.3341643810272217,3.4934372901916504,6.002509117126465
1767625032298308400,27.850308349609374,-3.3048927783966064,3.683060646057129,4.051080226898193
1767625032338399700,27.890399658203126,-3.841630697250366,-0.9191493988037109,-0.11228609085083008
1767625032358438700,27.910438720703127,-2.9236981868743896,-2.5759201049804688,-0.886011004447937
1767625032378470400,27.930470458984374,-2.3469390869140625,-1.2168512344360352,-1.2839114665985107
1767625032418547500,27.97054736328125,-0.9572335481643677,0.7350778579711914,2.3005969524383545
1767625032438591000,27.990591064453124,-1.483304738998413,-0.045398712158203125,3.226162910461426
1767625032458645500,28.0106455078125,-2.2286205291748047,-0.41738033294677734,3.561227560043335
1767625032498730200,28.050730224609374,-2.281690835952759,0.6359090805053711,1.9599521160125732
1767625032538823400,28.090823486328127,-1.0407131910324097,0.03335857391357422,0.3522285223007202
1767625032578923000,28.130923095703125,-0.8094378113746643,-0.07726573944091797,-0.5165305137634277
1767625032619008300,28.17100830078125,-0.43797433376312256,-0.29486560821533203,-0.468700647354126
1767625032659112000,28.21111181640625,0.5959516763687134,0.016196250915527344,0.7133244872093201
1767625032679157800,28.23115771484375,0.6761775016784668,0.16354656219482422,0.5107681155204773
1767625032699217200,28.251217041015625,0.6140446662902832,0.029259681701660156,0.5205252170562744
1767625032739324200,28.29132421875,0.6500646471977234,-0.03660011291503906,-0.16915571689605713
1767625032779426800,28.3314267578125,1.4750217199325562,-0.3010845184326172,-1.4187285900115967
1767625032819521500,28.371521484375,1.1266335248947144,-0.02000713348388672,-1.2091668844223022
1767625032839570200,28.391570068359375,1.25303053855896,-0.049957275390625,-0.7243219614028931
1767625032859606800,28.411606689453127,1.0380351543426514,-0.1385335922241211,-0.560588002204895
1767625032899721000,28.451720947265624,1.1779643297195435,-0.5054502487182617,0.7127656936645508
1767625032939839200,28.491839111328126,1.7879225015640259,-1.9989509582519531,-1.6275484561920166
1767625032979914500,28.53191455078125,1.081749677658081,-2.810299873352051,-0.7720251679420471
1767625033019994600,28.57199462890625,1.9390522241592407,-2.585616111755371,1.847754716873169
1767625033060073500,28.612073486328125,1.1984632015228271,-0.6167469024658203,4.090325832366943
1767625033100140500,28.652140625,-1.0715378522872925,0.5141077041625977,5.228802680969238
1767625033120174800,28.6721748046875,-2.2285804748535156,-0.7335577011108398,4.489253997802734
1767625033140217000,28.692217041015624,-2.799813747406006,-2.516310691833496,2.587977170944214
1767625033160248800,28.712248779296875,-2.964343547821045,-2.287282943725586,1.6855732202529907
1767625033180293000,28.732293212890625,-1.6856298446655273,-1.0267810821533203,0.518064558506012
1767625033220381200,28.772381103515624,-2.0869948863983154,0.6961965560913086,0.30172836780548096
1767625033260481300,28.812481201171874,-1.8883541822433472,0.38083934783935547,0.21523845195770264
1767625033300580600,28.85258056640625,-1.9130693674087524,0.05748176574707031,0.24565523862838745
1767625033340663600,28.89266357421875,-3.6252098083496094,2.138347625732422,2.6524178981781006
1767625033380744700,28.93274462890625,-3.3209850788116455,3.696071147918701,4.21958065032959
1767625033420828000,28.972827880859374,-2.295809745788574,2.500596046447754,2.0745463371276855
1767625033460905500,29.012905517578126,-0.5891556739807129,1.936805248260498,0.016393303871154785
1767625033500999000,29.0529990234375,1.947390079498291,-0.09469413757324219,0.65001380443573
1767625033541080800,29.093080810546876,5.681008338928223,-4.059322357177734,-1.1513949632644653
1767625033581149000,29.13314892578125,4.562445163726807,-2.578310012817383,-1.0094785690307617
1767625033621221600,29.1732216796875,0.9129471778869629,1.9480113983154297,2.3688788414001465
1767625033661309200,29.21330908203125,-3.3802337646484375,-8.360485076904297,6.176882743835449
1767625033701386200,29.25338623046875,-3.3378167152404785,2.40401029586792,1.223842740058899
1767625033741457400,29.29345751953125,-3.2304537296295166,1.4877538681030273,4.640933036804199
1767625033781532000,29.333531982421874,-3.7466161251068115,1.1549434661865234,1.0863158702850342
1767625033821606700,29.373606689453126,-2.3635847568511963,-1.198293685913086,-1.707226276397705
1767625033861692400,29.4136923828125,-0.9760965704917908,0.580073356628418,1.1109315156936646
1767625033881733000,29.433733154296874,-0.8004557490348816,0.6579790115356445,2.2020034790039062
1767625033901784600,29.45378466796875,-1.2447199821472168,-0.2398815155029297,2.6812572479248047
1767625033941884400,29.493884521484375,-0.7088398933410645,-0.41089725494384766,2.6911439895629883
1767625033981994500,29.533994384765624,0.0993819534778595,0.09730243682861328,0.22510278224945068
1767625034022089500,29.57408935546875,-1.132429838180542,0.8750419616699219,-0.9938957691192627
1767625034062166300,29.614166259765625,-0.5116187930107117,0.11911201477050781,-0.0002434253692626953
1767625034102275800,29.65427587890625,0.8011032938957214,0.17830848693847656,0.6734161376953125
1767625034122318800,29.67431884765625,1.0115870237350464,0.06830787658691406,1.0594673156738281
1767625034142381600,29.694381591796876,0.9288317561149597,-0.074798583984375,1.0031832456588745
1767625034182484700,29.734484619140623,1.678846836090088,-0.34909629821777344,0.1836974024772644
1767625034202530600,29.754530517578125,2.005417823791504,-0.4349689483642578,-0.6118627190589905
1767625034222591000,29.774591064453126,1.8888609409332275,0.048905372619628906,-1.2432315349578857
1767625034262689800,29.814689697265624,0.7496314644813538,-0.45003414154052734,-1.1613740921020508
1767625034302765600,29.854765625,1.0613648891448975,-0.9791374206542969,-0.35205042362213135
1767625034322810600,29.874810546875,1.4050817489624023,-1.1226434707641602,0.46368408203125
1767625034342864000,29.89486376953125,1.6387182474136353,-1.5544166564941406,0.08118778467178345
1767625034362907100,29.9149072265625,1.5175249576568604,-3.4778213500976562,-2.8568410873413086
1767625034382951700,29.93495166015625,1.2495468854904175,-2.7529850006103516,-3.565358877182007
1767625034423029200,29.975029296875,1.7939188480377197,-2.338587760925293,-0.7854861617088318
1767625034463121700,30.01512158203125,1.2113564014434814,-0.5261821746826172,1.196976900100708
1767625034503208400,30.05520849609375,0.2724485993385315,0.7788887023925781,3.1312170028686523
1767625034543272000,30.09527197265625,-2.4095211029052734,-0.6760358810424805,0.899682879447937
1767625034583348000,30.135347900390624,-2.742851495742798,-2.1879358291625977,-0.32975083589553833
1767625034623425000,30.175425048828124,-2.2075064182281494,-0.7261533737182617,-1.8981934785842896
1767625034663503400,30.21550341796875,-2.4240331649780273,-0.20917510986328125,0.2839244604110718
1767625034703600600,30.2556005859375,-2.426726818084717,0.06722068786621094,0.276120126247406
1767625034743699200,30.29569921875,-2.9935832023620605,0.5841503143310547,1.0206736326217651
1767625034783776300,30.3357763671875,-3.5317542552948,1.1723885536193848,2.9600162506103516
1767625034823848700,30.3758486328125,-2.658452272415161,2.317183017730713,2.163964033126831
1767625034843882000,30.395882080078124,-2.3316869735717773,1.8643336296081543,1.0020138025283813
1767625034863924700,30.4159248046875,-1.910984992980957,1.6409244537353516,0.43742382526397705
1767625034903993900,30.455993896484376,-0.8759386539459229,1.3223276138305664,0.8429942727088928
1767625034944075500,30.496075439453126,0.48096728324890137,0.0074863433837890625,-0.04161489009857178
1767625034984167000,30.5361669921875,3.1224777698516846,-2.7863950729370117,-0.24184933304786682
1767625035024230700,30.576230712890624,1.9079997539520264,-3.010578155517578,-1.5951828956604004
1767625035044271000,30.59627099609375,1.1745362281799316,-0.3850088119506836,-1.5635952949523926
1767625035064311600,30.6163115234375,0.5246727466583252,2.141963481903076,-0.833444356918335
1767625035084345000,30.636344970703124,-0.7798373699188232,-0.9529972076416016,1.3892916440963745
1767625035104394800,30.656394775390623,-1.992138147354126,-6.999414443969727,1.8771003484725952
1767625035144468000,30.696468017578123,-2.9541847705841064,1.0431327819824219,0.34699469804763794
1767625035184547800,30.7365478515625,-4.58011531829834,3.5954766273498535,2.4826395511627197
1767625035224622300,30.776622314453125,-3.4453980922698975,-2.732905387878418,-1.3678888082504272
1767625035264683800,30.816683837890626,-2.1126129627227783,-1.4817047119140625,-2.1687450408935547
1767625035304753200,30.856753173828125,-2.73911452293396,2.1589107513427734,1.9976544380187988
1767625035344837600,30.896837646484375,-2.534303903579712,-0.18553447723388672,1.1579056978225708
1767625035384921300,30.93692138671875,-1.4611361026763916,-0.19043922424316406,-0.584560751914978
1767625035425028000,30.977028076171877,-0.5017414093017578,1.4352455139160156,-0.35043811798095703
1767625035465121000,31.01712109375,-0.705460786819458,-0.026376724243164062,-0.8009583950042725
1767625035505197300,31.057197265625,0.5335708856582642,0.2888040542602539,0.18985474109649658
1767625035545292300,31.097292236328126,-0.960275411605835,-0.18673324584960938,-0.5807467699050903
1767625035585380900,31.137380859375,0.00891202688217163,0.7222843170166016,-0.7697899341583252
1767625035605424600,31.157424560546875,0.3335917592048645,-0.10520267486572266,-0.29699763655662537
1767625035625480200,31.177480224609376,0.4357612133026123,-0.43613338470458984,-0.3184022307395935
1767625035665591800,31.217591796875,0.5773292183876038,0.25827598571777344,-0.127658411860466
1767625035705697300,31.257697265625,0.9438859820365906,-0.8686199188232422,-0.11478373408317566
1767625035745783600,31.297783447265626,1.213567852973938,-1.1208524703979492,-0.462130606174469
1767625035785877200,31.337877197265627,-0.04770004749298096,-3.598146438598633,-5.007482051849365
1767625035805919700,31.357919677734376,0.23502421379089355,-3.231461524963379,-4.188731670379639
1767625035825971700,31.3779716796875,1.0987420082092285,-3.3365535736083984,-2.619245767593384
1767625035866056200,31.41805615234375,0.5797950029373169,-1.2136831283569336,-0.021060019731521606
1767625035906151400,31.4581513671875,0.016163498163223267,0.921147346496582,2.1014599800109863
1767625035926194000,31.47819384765625,0.015461474657058716,1.4303035736083984,1.936648964881897
1767625035946251500,31.49825146484375,-1.7406589984893799,0.5844917297363281,-0.951075553894043
1767625035986321200,31.538321044921876,-2.7314348220825195,-1.7787151336669922,-2.2347445487976074
1767625036026402300,31.57840234375,-3.651031970977783,-1.738692283630371,-1.810665249824524
1767625036046455300,31.598455322265625,-3.0570626258850098,-1.2893915176391602,-1.1964566707611084
1767625036066521000,31.61852099609375,-2.7311441898345947,-0.8229207992553711,-1.039734959602356
1767625036106623700,31.658623779296875,-2.669822931289673,-0.6566982269287109,-0.8805255889892578
1767625036146720800,31.698720703125,-2.8823742866516113,-0.1215362548828125,-0.5660337209701538
1767625036186814500,31.738814453125,-3.4849514961242676,0.9410762786865234,0.6417711973190308
1767625036226885400,31.778885498046876,-3.377002239227295,0.8221359252929688,1.112221598625183
1767625036266980000,31.81897998046875,-2.9531164169311523,1.4988908767700195,1.3573176860809326
1767625036307054300,31.859054443359376,-2.3730854988098145,1.7865829467773438,1.5131807327270508
1767625036347121400,31.899121337890627,-1.611414909362793,1.393263339996338,0.789876401424408
1767625036387208000,31.9392080078125,0.20731592178344727,0.1980762481689453,0.258237361907959
1767625036407251700,31.959251708984375,1.2176423072814941,-0.9208908081054688,-0.3579220473766327
1767625036427297500,31.979297607421874,1.8686156272888184,-1.9418163299560547,-1.4522753953933716
1767625036467369200,32.019369140625,3.4556312561035156,-2.7102136611938477,-2.6943273544311523
1767625036507449900,32.05944995117188,0.9410884380340576,1.0485239028930664,-1.4064234495162964
1767625036547536100,32.0995361328125,-2.5074315071105957,-5.00003719329834,1.9056247472763062
1767625036587614200,32.1396142578125,-2.5995407104492188,0.3286561965942383,0.5266270637512207
1767625036607652400,32.15965234375,-3.0060219764709473,1.1853575706481934,4.31113862991333
1767625036627694000,32.179694091796875,-4.374757289886475,0.46624279022216797,1.9058735370635986
1767625036667768300,32.219768310546876,-4.18317174911499,1.1845264434814453,-0.7052873373031616
1767625036687808000,32.23980810546875,-2.734774589538574,0.26019859313964844,-1.4252537488937378
1767625036707845600,32.259845703125,-2.5876197814941406,-1.3553600311279297,-2.237727165222168
1767625036747934200,32.29993432617187,-1.9017797708511353,0.6088857650756836,0.440329372882843
1767625036788020500,32.3400205078125,-1.4669898748397827,0.446258544921875,0.7023822665214539
1767625036828111400,32.380111328125,-1.5282301902770996,0.21805191040039062,-0.24936378002166748
1767625036868218000,32.42021801757812,-0.9759060144424438,0.16845417022705078,-0.5374798774719238
1767625036908330000,32.460330078125,-0.7807558178901672,-0.3405647277832031,-0.591217041015625
1767625036948406800,32.50040673828125,-0.7187556028366089,0.7061662673950195,-1.1230007410049438
1767625036988501500,32.54050146484375,-1.0250818729400635,0.24551105499267578,-0.2879287600517273
1767625037008545500,32.560545654296874,-0.4168716073036194,-0.18315887451171875,-0.5561261177062988
1767625037028599300,32.58059936523438,0.44245445728302,-0.15073585510253906,-0.6120070219039917
1767625037068675300,32.62067529296875,1.486371397972107,-0.33177947998046875,-0.7007178068161011
1767625037108779000,32.66077905273438,1.7483891248703003,-0.41576290130615234,-1.1943609714508057
1767625037148884000,32.700884033203124,1.497446894645691,0.15829086303710938,-0.0860898494720459
1767625037188963300,32.74096337890625,0.7537310719490051,-0.5229072570800781,-1.4846131801605225
1767625037229068000,32.781068115234376,1.7161813974380493,-2.440929412841797,-2.5115180015563965
1767625037249104600,32.80110473632813,0.4941542148590088,-3.6302032470703125,-3.7652738094329834
1767625037269152500,32.82115258789062,1.2293472290039062,-3.146425247192383,-3.440399646759033
1767625037309222100,32.86122216796875,1.1815017461776733,-2.1970787048339844,-0.6981649398803711
1767625037349294800,32.901294921875,-0.09433948993682861,-0.05594825744628906,1.6574434041976929
1767625037389380400,32.94138037109375,-0.8623185753822327,1.1557931900024414,2.9249227046966553
1767625037409429800,32.9614296875,-2.0712356567382812,-0.3431510925292969,0.8204609751701355
1767625037429462800,32.981462890625,-2.0855095386505127,-1.4410362243652344,-0.46366381645202637
1767625037469532700,33.02153271484375,-2.7293031215667725,-1.7852783203125,-0.9215978384017944
1767625037509644500,33.06164453125,-2.310431957244873,-1.1988821029663086,0.13101357221603394
1767625037549751300,33.10175122070312,-2.597827911376953,-0.833796501159668,0.8146072626113892
1767625037589855200,33.14185522460937,-2.7356224060058594,-0.03325080871582031,1.1842156648635864
1767625037609903900,33.16190380859375,-2.8903942108154297,0.7009458541870117,1.5002684593200684
1767625037629959400,33.18195947265625,-2.88344144821167,1.6292943954467773,1.8830411434173584
1767625037670031400,33.22203125,-3.15818452835083,2.2671360969543457,2.0316426753997803
1767625037710114600,33.26211450195313,-3.545262575149536,2.5771570205688477,1.53700852394104
1767625037730152400,33.28215234375,-3.281161308288574,2.1900830268859863,0.9328536987304688
1767625037750199600,33.30219946289063,-2.540956974029541,1.7696361541748047,0.48177170753479004
1767625037770235100,33.322235107421875,-1.5376675128936768,1.2327399253845215,0.576381266117096
1767625037790284000,33.342283935546874,-0.1335921287536621,0.7800283432006836,0.049020349979400635
1767625037810325200,33.3623251953125,0.7514791488647461,-0.4327278137207031,-0.676645815372467
1767625037830366500,33.38236645507813,1.1844520568847656,-1.017500877380371,-0.5974141359329224
1767625037870459600,33.42245971679687,3.5349128246307373,-1.622624397277832,-1.7085081338882446
1767625037910533400,33.46253344726563,4.312115669250488,-2.957247734069824,-1.3869898319244385
1767625037950608000,33.50260791015625,1.3798160552978516,2.869953155517578,-0.5610594749450684
1767625037970642000,33.52264184570313,-1.57576322555542,-3.2409725189208984,2.948258876800537
1767625037990689000,33.54268896484375,-2.552293539047241,-7.23050594329834,4.560192584991455
1767625038030765300,33.58276538085938,-2.6861331462860107,1.1930980682373047,3.761064291000366
1767625038070846000,33.622845947265624,-6.469817638397217,1.5078930854797363,-1.1658023595809937
1767625038110931200,33.66293115234375,-3.0311267375946045,0.6342887878417969,0.41836631298065186
1767625038151007500,33.703007568359375,-2.203418731689453,-1.7346420288085938,-0.9176902770996094
1767625038191090700,33.74309057617187,-1.9906586408615112,1.403183937072754,1.7339915037155151
1767625038211129300,33.76312939453125,-1.5185920000076294,0.900517463684082,2.520761728286743
1767625038231180300,33.78318017578125,-1.4336340427398682,-0.3406715393066406,1.3213690519332886
1767625038271286800,33.82328686523437,-1.6337556838989258,0.7472848892211914,0.15006548166275024
1767625038311393500,33.8633935546875,-1.7634282112121582,-0.16111087799072266,-0.6642018556594849
1767625038331439400,33.883439453125,-1.172695279121399,-0.5557355880737305,-0.5785510540008545
1767625038351495000,33.903494873046874,0.006708557717502117,-0.5037517547607422,-0.9926780462265015
1767625038371547400,33.92354736328125,0.9007347822189331,0.6503276824951172,-1.832757592201233
1767625038391585500,33.94358544921875,0.3668506145477295,0.7795171737670898,-1.6010578870773315
1767625038431677400,33.98367749023438,-0.8141729831695557,0.05939483642578125,0.24802784621715546
1767625038451718100,34.00371826171875,-0.6919184923171997,0.020646095275878906,0.2869952917098999
1767625038471774000,34.02377392578125,0.08763498067855835,-0.12190532684326172,0.3073898255825043
1767625038511874300,34.06387426757812,1.5486235618591309,-0.08055591583251953,-0.2620186507701874
1767625038551974100,34.10397412109375,0.9218810796737671,-0.3783836364746094,-1.450670599937439
1767625038592072200,34.144072265625,0.7679857611656189,0.048079490661621094,-0.520287036895752
1767625038632147000,34.18414697265625,0.8068500757217407,-0.23552513122558594,0.14961189031600952
1767625038672245200,34.22424536132812,1.2393337488174438,-0.8011713027954102,-0.4484858214855194
1767625038692290800,34.24429077148437,1.3633816242218018,-1.9080228805541992,-2.3803367614746094
1767625038712336100,34.26433618164062,0.6264081597328186,-3.539630889892578,-3.7990591526031494
1767625038732372000,34.2843720703125,1.27900230884552,-2.9008636474609375,-3.017888307571411
1767625038752409600,34.30440966796875,1.1409212350845337,-3.03936767578125,-1.9605904817581177
1767625038792504000,34.34450415039063,0.8694517612457275,-1.069753646850586,0.7297267913818359
1767625038832593400,34.38459350585938,0.36953768134117126,0.5981769561767578,2.851374387741089
1767625038872665300,34.424665283203126,-2.0673935413360596,0.5379571914672852,0.7495712637901306
1767625038912754200,34.464754150390625,-2.9578418731689453,-2.3542003631591797,-0.469127357006073
1767625038952840200,34.50484008789063,-2.414626359939575,-1.5556507110595703,-0.5105944871902466
1767625038992934000,34.544933837890625,-2.0345726013183594,-1.6514129638671875,-0.5845903158187866
1767625039033041400,34.58504150390625,-2.160356283187866,-1.0733747482299805,0.16079318523406982
1767625039053093600,34.60509375,-2.438849925994873,-0.33239173889160156,0.6712614297866821
1767625039073153500,34.62515356445312,-3.0831375122070312,0.722529411315918,0.7838906049728394
1767625039113242600,34.66524267578125,-3.410222291946411,1.8760709762573242,1.9543358087539673
1767625039153324300,34.70532421875,-3.3688759803771973,2.4523887634277344,1.2857006788253784
1767625039173362000,34.72536181640625,-3.341848850250244,2.3264479637145996,0.8517764210700989
1767625039193410800,34.74541088867188,-3.4750890731811523,2.04762601852417,0.3113207221031189
1767625039233500400,34.78550048828125,-2.3786935806274414,1.402066707611084,-0.10641077160835266
1767625039273599200,34.82559912109375,0.0343317985534668,-0.3898811340332031,0.20554330945014954
1767625039313692700,34.86569262695313,2.0962202548980713,-1.392838478088379,0.0901370644569397
1767625039333729800,34.88572973632812,2.7059073448181152,-1.686741828918457,-0.48654288053512573
1767625039353763000,34.90576318359375,3.26720929145813,-1.7975120544433594,-1.0670318603515625
1767625039393842200,34.94584228515625,0.6873135566711426,-0.5594024658203125,-1.1985472440719604
1767625039413892900,34.96589282226562,-0.19910383224487305,1.537914752960205,-1.298624038696289
1767625039433940200,34.98594018554687,-0.16937780380249023,2.8719358444213867,-0.5999535322189331
1767625039474012700,35.0260126953125,-1.273352861404419,-7.871886253356934,2.0152904987335205
1767625039514092500,35.066092529296874,-3.648474931716919,1.3794398307800293,1.9103200435638428
1767625039554172700,35.106172607421875,-4.729433059692383,0.4740467071533203,0.8482499718666077
1767625039594248400,35.14624853515625,-3.8091835975646973,-0.5332632064819336,-2.4022324085235596
1767625039634344000,35.18634399414063,-2.6184630393981934,-0.21271610260009766,-2.0380334854125977
1767625039674452700,35.22645263671875,-2.5473954677581787,-0.17891979217529297,-1.3919538259506226
1767625039694505500,35.24650537109375,-2.0857582092285156,0.7346572875976562,0.10935819149017334
1767625039714556700,35.266556640625,-1.2133897542953491,0.37348175048828125,0.8644421696662903
1767625039754664000,35.306663818359375,-0.8751730918884277,-0.3530101776123047,0.41659289598464966
1767625039794771000,35.34677099609375,-0.04308974742889404,-0.23219966888427734,-0.4003092646598816
1767625039814818000,35.36681811523437,0.1870020031929016,0.10480022430419922,-0.9621005058288574
1767625039834849500,35.386849609375,-0.3360883891582489,0.6984701156616211,-1.625465989112854
1767625039874943700,35.42694384765625,-1.6744575500488281,0.6120271682739258,-1.6647560596466064
1767625039915042800,35.46704272460938,-1.4385441541671753,0.24112987518310547,-0.7286644577980042
1767625039955147000,35.50714697265625,-0.44442132115364075,0.08458900451660156,-0.12038493156433105
1767625039975198000,35.52719799804687,0.3806208074092865,0.08511924743652344,0.002452075481414795
1767625039995262200,35.54726220703125,1.1518974304199219,-0.34650611877441406,-0.09834641218185425
1767625040035360500,35.587360595703124,0.5025392174720764,0.0022077560424804688,-0.8205150365829468
1767625040055410700,35.60741064453125,0.30321836471557617,-0.21121883392333984,-0.2175479233264923
1767625040075444500,35.62744458007813,-0.2661006450653076,-0.08299827575683594,-0.6765890717506409
1767625040115559400,35.667559326171876,-0.09912264347076416,-0.09062480926513672,-0.391534686088562
1767625040135607300,35.68760717773438,0.27587270736694336,-0.09917831420898438,-0.056653618812561035
1767625040155667200,35.70766723632813,0.6998234987258911,-0.3599567413330078,0.11798632144927979
1767625040195773400,35.7477734375,1.2125673294067383,-1.0339527130126953,-1.3116116523742676
1767625040235869200,35.787869140625,-0.30573248863220215,-2.804788589477539,-3.724653959274292
1767625040275941400,35.82794140625,1.3564163446426392,-2.5692501068115234,-2.720578670501709
1767625040316010800,35.8680107421875,1.1693577766418457,-0.5598859786987305,-0.6684027910232544
1767625040356110800,35.90811083984375,0.13269466161727905,0.8359174728393555,1.0310779809951782
1767625040396223200,35.94822314453125,-0.7993810176849365,1.7387561798095703,0.26048779487609863
1767625040436334000,35.988333984375,-2.9506888389587402,-1.0899553298950195,0.28444355726242065
1767625040476415500,36.02841552734375,-2.785287857055664,-2.219252586364746,-0.5495233535766602
1767625040516514300,36.06851440429688,-2.548187017440796,-1.4760551452636719,-1.821811318397522
1767625040556593700,36.10859375,-1.877962350845337,-1.1205368041992188,-1.3802028894424438
1767625040596760600,36.148760498046876,-2.575866222381592,-0.3074607849121094,-0.1423322558403015
1767625040616809200,36.168809326171875,-2.814419746398926,0.3493328094482422,0.5899769067764282
1767625040636870000,36.188869873046876,-2.990321159362793,0.6314420700073242,1.0446420907974243
1767625040676974300,36.22897436523437,-3.0310277938842773,0.6019039154052734,1.962081789970398
1767625040697023200,36.24902319335938,-2.8134851455688477,1.0007896423339844,1.8849745988845825
1767625040717083100,36.26908325195313,-2.39119553565979,1.5204744338989258,1.4947710037231445
1767625040757166000,36.309166015625,-1.887939214706421,1.5487909317016602,0.47477394342422485
1767625040777203500,36.32920336914062,-1.8928577899932861,1.5673174858093262,0.22313626110553741
1767625040797239000,36.34923901367188,-1.948185920715332,1.1938385963439941,0.031207919120788574
1767625040837331500,36.38933154296875,-0.9482405185699463,0.6226396560668945,0.45423179864883423
1767625040877431300,36.429431396484375,0.7080788612365723,0.0950021743774414,0.3089739978313446
1767625040917527600,36.469527587890624,2.226487874984741,-1.686380386352539,-0.5360941886901855
1767625040957609700,36.509609619140626,2.460202217102051,-1.9284124374389648,-1.0471395254135132
1767625040997692200,36.54969213867187,0.5085217952728271,1.721663475036621,-1.0601712465286255
1767625041017731300,36.5697314453125,0.06528162956237793,2.093791961669922,-0.2625396251678467
1767625041037768400,36.5897685546875,-1.2588987350463867,-1.5037364959716797,1.933024525642395
1767625041077854000,36.62985400390625,-0.7644236087799072,-5.233844757080078,2.151503086090088
1767625041118008600,36.67000854492188,-3.544851303100586,2.0753817558288574,1.7255734205245972
1767625041158089000,36.7100888671875,-5.500580310821533,1.2499780654907227,-0.41537541151046753
1767625041198182000,36.750181884765624,-2.261732578277588,-3.076056480407715,-4.112656116485596
1767625041238265900,36.790265869140626,-1.2683804035186768,0.8732032775878906,0.8334015011787415
1767625041278343700,36.83034375,-1.3077157735824585,0.8057346343994141,1.5990071296691895
1767625041318438100,36.870438232421876,-1.1939198970794678,-0.9316768646240234,-1.2542473077774048
1767625041338482000,36.89048193359375,-0.8374713659286499,-0.4377288818359375,-1.6839392185211182
1767625041358543600,36.910543701171875,-0.372822105884552,0.2477254867553711,-1.186374545097351
1767625041398654700,36.95065478515625,-0.6400660872459412,0.24878787994384766,-0.3043310344219208
1767625041438773500,36.9907734375,-0.6115063428878784,0.32448768615722656,-0.04509192705154419
1767625041478895600,37.0308955078125,-0.5101730823516846,0.5402278900146484,-0.3054687976837158
1767625041518996700,37.07099682617188,-0.7210264801979065,0.15268421173095703,0.09522168338298798
1767625041559114000,37.11111401367187,-0.644684374332428,0.18878650665283203,0.01926262676715851
1767625041579166500,37.13116650390625,-0.28557807207107544,0.26302433013916016,-0.06088482216000557
1767625041599235600,37.15123559570313,0.10600483417510986,0.46875,-0.08105068653821945
1767625041639351000,37.19135107421875,0.34219491481781006,-0.5566492080688477,-0.7841728329658508
1767625041679462400,37.23146240234375,0.4221300482749939,-0.1654224395751953,-0.26306232810020447
1767625041719572200,37.271572265625,0.8590350151062012,0.08738136291503906,-0.9298542141914368
1767625041739624200,37.29162426757812,0.07219898700714111,-0.20232582092285156,-0.8756519556045532
1767625041759662600,37.31166259765625,0.21584177017211914,-0.4919013977050781,-0.3011595606803894
1767625041779718400,37.33171850585938,0.862767219543457,-0.5291213989257812,-0.7261737585067749
1767625041799778300,37.3517783203125,1.036804437637329,-0.6781167984008789,-1.366272211074829
1767625041839891500,37.391891357421876,0.2239549160003662,-2.8112058639526367,-2.5577259063720703
1767625041879972600,37.43197265625,1.2412643432617188,-1.9416275024414062,-1.9899362325668335
1767625041920068000,37.47206811523437,1.2024725675582886,-1.6678762435913086,-0.4858468472957611
1767625041960168400,37.51216845703125,1.1902941465377808,-0.06435203552246094,0.8584200143814087
1767625042000241700,37.55224169921875,0.4540449380874634,1.1082611083984375,1.1749651432037354
1767625042040339500,37.59233935546875,-1.3212381601333618,0.5889959335327148,1.1615232229232788
1767625042080431900,37.63243188476562,-2.9621453285217285,-2.5619516372680664,0.6445716023445129
1767625042100467700,37.6524677734375,-2.2596592903137207,-2.6461009979248047,1.254131555557251
1767625042120508200,37.67250805664062,-1.3906066417694092,-1.9947614669799805,0.48724985122680664
1767625042160590300,37.71259033203125,-1.7319307327270508,-0.7059850692749023,-0.6433243155479431
1767625042200672000,37.75267211914063,-1.9513065814971924,-0.3612251281738281,0.11069762706756592
1767625042240738300,37.79273828125,-2.268123149871826,0.6132650375366211,1.0338200330734253
1767625042280830700,37.832830810546874,-3.080179214477539,1.7457695007324219,2.549956798553467
1767625042320902700,37.87290258789063,-2.9232571125030518,2.7855916023254395,2.6532535552978516
1767625042360972000,37.912971923828124,-2.4889252185821533,1.9423484802246094,0.7150006890296936
1767625042401049600,37.95304956054687,-1.411123514175415,1.2493085861206055,-0.2617005407810211
1767625042441136600,37.99313671875,0.457836389541626,0.1612558364868164,-0.39691832661628723
1767625042481201200,38.033201171875,1.642613172531128,-0.4741039276123047,-0.39376553893089294
1767625042521280300,38.0732802734375,3.7808034420013428,-2.591815948486328,-0.5887677669525146
1767625042561363700,38.11336376953125,2.6023290157318115,-1.6219558715820312,-1.5482032299041748
1767625042601436200,38.153436279296876,0.6208024024963379,2.673145294189453,0.7294204235076904
1767625042641513000,38.19351293945312,-2.1340134143829346,-7.157783508300781,3.052018404006958
1767625042681583900,38.233583984375,-3.316049575805664,-1.5732965469360352,1.0849683284759521
1767625042721655600,38.27365551757813,-4.504549026489258,3.4887051582336426,2.7770071029663086
1767625042761736700,38.31373681640625,-4.867626190185547,0.6575164794921875,-0.13114270567893982
1767625042801825800,38.35382568359375,-2.2217905521392822,-2.399416923522949,-4.304610252380371
1767625042841900800,38.39390087890625,-1.9031156301498413,0.8246297836303711,0.5239094495773315
1767625042881986600,38.433986572265624,-1.4897119998931885,0.12532520294189453,1.8448363542556763
1767625042922073300,38.4740732421875,-1.0215181112289429,-0.3332710266113281,0.4373622536659241
1767625042962144500,38.51414453125,-0.5139759182929993,-0.034262657165527344,0.09810132533311844
1767625043002250000,38.55425,-0.43085402250289917,0.2041950225830078,-0.4644385278224945
1767625043022303000,38.574302978515625,-0.590472936630249,0.3064870834350586,-0.9402822852134705
1767625043042368000,38.59436791992187,-0.9127554893493652,0.30248069763183594,-0.913503885269165
1767625043082464000,38.63446411132813,-0.8739835619926453,0.5384044647216797,-0.4130278527736664
1767625043102507000,38.654507080078126,-0.5757225155830383,0.5762262344360352,-0.14340104162693024
1767625043122565600,38.67456567382813,-0.4698468744754791,0.08213615417480469,-0.28142407536506653
1767625043162662000,38.714661865234376,0.9368062615394592,-0.43341541290283203,-0.18784962594509125
1767625043202735900,38.75473583984375,2.1791999340057373,0.008916854858398438,-1.0533828735351562
1767625043242830300,38.794830322265625,0.5455511808395386,0.6626958847045898,-0.0596742108464241
1767625043262869800,38.814869873046874,0.40534549951553345,-0.08836746215820312,0.872938334941864
1767625043282922000,38.834921875,0.5721049308776855,-0.3175497055053711,0.8985524773597717
1767625043323019300,38.875019287109374,-0.3838479518890381,-0.7916069030761719,-1.0582607984542847
1767625043343067600,38.89506762695312,0.16662675142288208,-1.3413209915161133,-1.9129782915115356
1767625043363119900,38.915119873046876,0.6036626100540161,-2.640993118286133,-2.9901843070983887
1767625043403193000,38.95519311523437,1.0439081192016602,-2.844196319580078,-2.382502317428589
1767625043443262700,38.9952626953125,1.5412404537200928,-1.418807029724121,-0.797447919845581
1767625043483355600,39.03535571289063,0.3406757116317749,0.8903665542602539,0.18403229117393494
1767625043523451000,39.07545092773437,-2.4708056449890137,1.1131353378295898,-1.1123788356781006
1767625043563529500,39.115529541015626,-4.278855323791504,-2.167099952697754,-2.983774185180664
1767625043603601400,39.15560131835937,-4.358893871307373,-2.341510772705078,-3.5532455444335938
1767625043643690800,39.195690673828125,-3.2517731189727783,-0.31397056579589844,-3.449997901916504
1767625043683756500,39.23575659179688,-4.120179176330566,-1.101088523864746,-3.186291217803955
1767625043723857000,39.27585693359375,-5.547472953796387,-0.3992452621459961,-2.3507814407348633
1767625043763948800,39.31594873046875,-5.947858810424805,-0.17601490020751953,-2.0339221954345703
1767625043804047000,39.35604711914063,-5.247851371765137,-1.044769287109375,-2.07676100730896
1767625043844142800,39.396142822265624,-4.1832275390625,-1.5868549346923828,-0.9293599724769592
1767625043884237300,39.4362373046875,-3.1972904205322266,-1.6566963195800781,0.18946251273155212
1767625043924312600,39.4763125,-3.4831595420837402,-1.5072517395019531,-0.2588326930999756
1767625043964421000,39.516421142578125,-2.851637840270996,-0.37343883514404297,1.2690534591674805
1767625044004534000,39.556533935546874,-2.0230960845947266,0.9979610443115234,1.252597689628601
1767625044044639200,39.59663916015625,-1.7838722467422485,0.5864143371582031,-2.1367218494415283
1767625044084729600,39.6367294921875,-0.7682472467422485,-0.6610698699951172,-4.156091690063477
1767625044124837000,39.67683715820313,-1.3433184623718262,0.925236701965332,-2.156369686126709
1767625044144882200,39.696882080078126,-1.6976821422576904,1.2184867858886719,-2.1728878021240234
1767625044164914700,39.71691479492188,-2.0205516815185547,0.12429237365722656,-1.4034128189086914
1767625044204993800,39.756993896484374,-0.40446341037750244,-3.174872398376465,3.902843952178955
1767625044225027600,39.77702758789062,-0.4453197717666626,-0.8575859069824219,2.917583703994751
1767625044245076200,39.797076171875,-1.3925583362579346,0.43790626525878906,0.6110427975654602
1767625044285160700,39.83716064453125,-1.5908541679382324,-0.9294347763061523,-0.7063199281692505
1767625044305201700,39.85720166015625,-1.0500068664550781,0.7486486434936523,-1.7446178197860718
1767625044325245700,39.87724560546875,-0.6711462736129761,1.535024642944336,-2.5677542686462402
1767625044365341200,39.917341064453126,-0.38824835419654846,-0.26250743865966797,-1.5631341934204102
1767625044405423400,39.95742333984375,-0.9846264123916626,-0.9186725616455078,-1.182178258895874
1767625044445517800,39.99751782226563,-1.2425051927566528,0.22887134552001953,-0.9548524618148804
1767625044465563600,40.01756372070312,-1.4221680164337158,-0.6636686325073242,-1.4004034996032715
1767625044485626600,40.03762670898438,-0.952820897102356,-0.5213947296142578,-0.9284917116165161
1767625044525726200,40.077726318359375,-0.6238517165184021,0.5261287689208984,-1.0912436246871948
1767625044565834800,40.11783471679688,-0.7124407291412354,0.6006584167480469,-0.9988257884979248
1767625044605942300,40.1579423828125,-1.2136540412902832,0.23100566864013672,-0.02182316780090332
