time,seconds_elapsed,z,y,x
1767621245461099000,0.10909912109375,0.001832595793530345,0.0012217304902151227,0.001832595793530345
1767621245501207800,0.149207763671875,-0.0006108652451075613,-0.0006108652451075613,0.0006108652451075613
1767621245541316400,0.18931640625,-0.001832595793530345,0.0006108652451075613,0.003054326167330146
1767621245581429500,0.229429443359375,-0.001832595793530345,0.003054326167330146,0.00427605677396059
1767621245621544400,0.26954443359375,0.0006108652451075613,0.0006108652451075613,0.003054326167330146
1767621245661663000,0.3096630859375,0.0012217304902151227,-0.001832595793530345,0.0012217304902151227
1767621245701786000,0.3497861328125,-0.0006108652451075613,0.0024434609804302454,0.003054326167330146
1767621245741910800,0.389910888671875,0.0006108652451075613,0.0006108652451075613,0.0012217304902151227
1767621245782026200,0.430026123046875,-0.001832595793530345,0.001832595793530345,-0.0006108652451075613
1767621245822142000,0.470141845703125,-0.0012217304902151227,0.0006108652451075613,0.0012217304902151227
1767621245862252000,0.510251953125,-0.001832595793530345,0.00366519158706069,0.004886921960860491
1767621245902361300,0.550361328125,0.0012217304902151227,0,0.003054326167330146
1767621245942477300,0.590477294921875,-0.0012217304902151227,0.0006108652451075613,0.001832595793530345
1767621245982599400,0.630599365234375,0,0.0012217304902151227,0.0012217304902151227
1767621246022717000,0.670717041015625,-0.0006108652451075613,-0.0006108652451075613,0.0024434609804302454
1767621246062831600,0.71083154296875,-0.0012217304902151227,0.001832595793530345,0.001832595793530345
1767621246102928000,0.750927978515625,0.0012217304902151227,-0.0006108652451075613,0.004886921960860491
1767621246143047400,0.79104736328125,0.0012217304902151227,0.0012217304902151227,0
1767621246183168000,0.83116796875,0.0006108652451075613,0,0.003054326167330146
1767621246223293400,0.87129345703125,-0.0012217304902151227,0.001832595793530345,0.0024434609804302454
1767621246263416000,0.911416015625,-0.0006108652451075613,0,0.0024434609804302454
1767621246303532500,0.951532470703125,-0.0012217304902151227,0.0024434609804302454,0.0024434609804302454
1767621246343653600,0.991653564453125,0.001832595793530345,0.001832595793530345,0.0024434609804302454
1767621246383785000,1.031784912109375,-0.0012217304902151227,0.0006108652451075613,0.001832595793530345
1767621246403890400,1.051890380859375,0.0012217304902151227,0,0.0006108652451075613
1767621246423915500,1.07191552734375,0,0.0006108652451075613,0.003054326167330146
1767621246464041000,1.112041015625,0.0006108652451075613,0.001832595793530345,0.00427605677396059
1767621246504158700,1.15215869140625,-0.0006108652451075613,0.0012217304902151227,0.0024434609804302454
1767621246544277200,1.19227734375,-0.0012217304902151227,0.001832595793530345,0.001832595793530345
1767621246564382700,1.2123828125,0,0.0012217304902151227,0.003054326167330146
1767621246584403500,1.232403564453125,0.003054326167330146,0.003054326167330146,0.004886921960860491
1767621246624522200,1.272522216796875,-0.0012217304902151227,0.001832595793530345,0.00366519158706069
1767621246664647000,1.31264697265625,-0.0006108652451075613,0.0006108652451075613,0.0024434609804302454
1767621246704769800,1.352769775390625,0,-0.0012217304902151227,0.001832595793530345
1767621246744888300,1.392888427734375,-0.0006108652451075613,0,0.00427605677396059
1767621246785005600,1.433005615234375,-0.001832595793530345,0.0024434609804302454,0.0024434609804302454
1767621246825118200,1.4731181640625,0.0006108652451075613,-0.0006108652451075613,0.001832595793530345
1767621246865238300,1.51323828125,-0.0024434609804302454,-0.0006108652451075613,0.0024434609804302454
1767621246905366300,1.5533662109375,0.0012217304902151227,0,0.0024434609804302454
1767621246945477400,1.593477294921875,-0.0024434609804302454,0.0012217304902151227,0.001832595793530345
1767621246985595000,1.633594970703125,0.0006108652451075613,0.001832595793530345,0.0024434609804302454
1767621247025708500,1.67370849609375,0,0.0012217304902151227,0.0024434609804302454
1767621247065824800,1.71382470703125,-0.0012217304902151227,0.0012217304902151227,0.0012217304902151227
1767621247105948200,1.7539482421875,0,0.001832595793530345,0.003054326167330146
1767621247126048500,1.774048583984375,0.0012217304902151227,0.0006108652451075613,0.00366519158706069
1767621247146068500,1.794068359375,-0.0012217304902151227,-0.0012217304902151227,-0.0006108652451075613
1767621247186189000,1.83418896484375,0.0006108652451075613,0.0006108652451075613,0.0024434609804302454
1767621247226313200,1.874313232421875,0.0012217304902151227,0,0.0006108652451075613
1767621247266441500,1.91444140625,0.003054326167330146,0.0024434609804302454,0.0012217304902151227
1767621247306568200,1.954568115234375,-0.0006108652451075613,0.0012217304902151227,0.0024434609804302454
1767621247346696700,1.99469677734375,-0.001832595793530345,0.0006108652451075613,0
1767621247386813700,2.034813720703125,-0.0012217304902151227,-0.0012217304902151227,0.0012217304902151227
1767621247426930000,2.074929931640625,-0.0024434609804302454,-0.0012217304902151227,-0.0006108652451075613
1767621247467047000,2.115046875,0,-0.0012217304902151227,-0.003054326167330146
1767621247507158800,2.15515869140625,0,-0.0012217304902151227,-0.0012217304902151227
1767621247547275800,2.19527587890625,-0.003054326167330146,0,-0.0006108652451075613
1767621247587405800,2.23540576171875,-0.0006108652451075613,-0.0006108652451075613,0.0012217304902151227
1767621247627530200,2.2755302734375,0.001832595793530345,-0.0006108652451075613,-0.0024434609804302454
1767621247667654100,2.315654052734375,-0.0012217304902151227,-0.0012217304902151227,0
1767621247707777000,2.355777099609375,0.0012217304902151227,-0.0024434609804302454,0
1767621247747896000,2.39589599609375,-0.001832595793530345,-0.001832595793530345,-0.001832595793530345
1767621247788020500,2.4360205078125,0.0006108652451075613,0,0.0024434609804302454
1767621247828142300,2.476142333984375,-0.0006108652451075613,0.0006108652451075613,0.0006108652451075613
1767621247848243500,2.496243408203125,-0.0012217304902151227,0.0012217304902151227,-0.0006108652451075613
1767621247868269000,2.51626904296875,0.0006108652451075613,-0.001832595793530345,-0.0012217304902151227
1767621247908395500,2.5563955078125,-0.00427605677396059,0.0012217304902151227,0.0024434609804302454
1767621247928492800,2.576492919921875,0.0012217304902151227,-0.0006108652451075613,-0.0012217304902151227
1767621247948508700,2.5965087890625,0.0006108652451075613,-0.001832595793530345,-0.0006108652451075613
1767621247988620300,2.636620361328125,-0.001832595793530345,0.0006108652451075613,0
1767621248008720400,2.656720458984375,-0.0024434609804302454,0,-0.0006108652451075613
1767621248028739000,2.676739013671875,0,0.0006108652451075613,0.0006108652451075613
1767621248068861400,2.716861328125,-0.001832595793530345,0,0
1767621248108988200,2.75698828125,-0.001832595793530345,0,-0.0006108652451075613
1767621248149116700,2.79711669921875,-0.0024434609804302454,0.0006108652451075613,0.0024434609804302454
1767621248169219800,2.8172197265625,-0.001832595793530345,-0.003054326167330146,-0.0006108652451075613
1767621248189243400,2.837243408203125,0,-0.0006108652451075613,0.001832595793530345
1767621248209343200,2.85734326171875,-0.001832595793530345,0.0012217304902151227,-0.001832595793530345
1767621248229363500,2.877363525390625,0.0006108652451075613,-0.0012217304902151227,-0.0024434609804302454
1767621248269484500,2.917484619140625,-0.001832595793530345,-0.0024434609804302454,-0.0012217304902151227
1767621248289592300,2.93759228515625,0,0,0
1767621248309614000,2.957614013671875,-0.001832595793530345,0,-0.0012217304902151227
1767621248349736200,2.997736083984375,-0.0006108652451075613,-0.0006108652451075613,-0.0006108652451075613
1767621248389849900,3.037849853515625,-0.0006108652451075613,-0.0024434609804302454,-0.0012217304902151227
1767621248409944300,3.0579443359375,0.0006108652451075613,-0.003054326167330146,-0.0012217304902151227
1767621248429969400,3.077969482421875,0,0,0.0024434609804302454
1767621248470063900,3.11806396484375,-0.0012217304902151227,0.0012217304902151227,0.0012217304902151227
1767621248490162400,3.138162353515625,0,0.0006108652451075613,-0.0006108652451075613
1767621248510177300,3.15817724609375,0.001832595793530345,0,-0.001832595793530345
1767621248550298000,3.198298095703125,0.001832595793530345,0.0006108652451075613,-0.0024434609804302454
1767621248590417700,3.238417724609375,-0.0006108652451075613,0.0024434609804302454,0.00427605677396059
1767621248630532000,3.278531982421875,0,-0.0012217304902151227,0
1767621248670647000,3.31864697265625,-0.0006108652451075613,0,0.00366519158706069
1767621248710784000,3.358783935546875,0,-0.0006108652451075613,0.0006108652451075613
1767621248750897000,3.39889697265625,-0.0012217304902151227,0.0012217304902151227,-0.0012217304902151227
1767621248770999800,3.418999755859375,0,0.0006108652451075613,0
1767621248791021000,3.43902099609375,0.0006108652451075613,-0.0006108652451075613,-0.0024434609804302454
1767621248811124000,3.4591240234375,0.0006108652451075613,-0.0006108652451075613,0.0012217304902151227
1767621248831145000,3.47914501953125,0.0006108652451075613,0,0.0012217304902151227
1767621248871258600,3.519258544921875,0.001832595793530345,-0.0006108652451075613,-0.0006108652451075613
1767621248911437600,3.5594375,-0.0006108652451075613,0,0.0006108652451075613
1767621248951544300,3.59954443359375,-0.0012217304902151227,-0.001832595793530345,0.0006108652451075613
1767621248971645200,3.619645263671875,0.0012217304902151227,-0.0012217304902151227,0.0006108652451075613
1767621248991665200,3.6396650390625,-0.0024434609804302454,0.0012217304902151227,-0.0006108652451075613
1767621249031778600,3.679778564453125,-0.00366519158706069,-0.0006108652451075613,0.0006108652451075613
1767621249071897000,3.71989697265625,-0.001832595793530345,0.0012217304902151227,0.0024434609804302454
1767621249112014300,3.760014404296875,0.0006108652451075613,-0.001832595793530345,0.0006108652451075613
1767621249152177700,3.800177734375,0.0012217304902151227,-0.0012217304902151227,0
1767621249192282000,3.8402822265625,-0.0012217304902151227,0,0
1767621249212380200,3.860380126953125,0,-0.0006108652451075613,0.0006108652451075613
1767621249232394000,3.88039404296875,-0.0006108652451075613,0.001832595793530345,0.0012217304902151227
1767621249272512000,3.920511962890625,-0.001832595793530345,-0.0006108652451075613,0.0006108652451075613
1767621249292608800,3.94060888671875,-0.0006108652451075613,0,-0.0012217304902151227
1767621249312623600,3.96062353515625,-0.0006108652451075613,0.0006108652451075613,0.001832595793530345
1767621249332721700,3.9807216796875,0.001832595793530345,-0.0006108652451075613,-0.0006108652451075613
1767621249352739600,4.000739501953125,0.0006108652451075613,0.0012217304902151227,-0.0024434609804302454
1767621249372836900,4.0208369140625,-0.0024434609804302454,0.0006108652451075613,0.003054326167330146
1767621249392854000,4.04085400390625,0.0024434609804302454,-0.001832595793530345,-0.0006108652451075613
1767621249432970500,4.080970458984375,-0.001832595793530345,0,0.00366519158706069
1767621249473086700,4.121086669921875,0,-0.0012217304902151227,0
1767621249513200600,4.16120068359375,-0.0024434609804302454,-0.0006108652451075613,0.0006108652451075613
1767621249553304600,4.2013046875,0.0006108652451075613,0.0012217304902151227,0.0012217304902151227
1767621249593411800,4.241411865234375,-0.0006108652451075613,0.0006108652451075613,0.001832595793530345
1767621249613508000,4.261508056640625,0,-0.0012217304902151227,-0.0012217304902151227
1767621249633524500,4.2815244140625,0.0006108652451075613,0,0.001832595793530345
1767621249673638000,4.321637939453125,0.0012217304902151227,0.0012217304902151227,0.0012217304902151227
1767621249713764900,4.361764892578125,0.0012217304902151227,-0.0006108652451075613,0.0012217304902151227
1767621249753887500,4.401887451171875,0,0,0.0006108652451075613
1767621249794002400,4.44200244140625,-0.001832595793530345,0.001832595793530345,0.0006108652451075613
1767621249834109700,4.482109619140625,0.0012217304902151227,0.0006108652451075613,-0.0006108652451075613
1767621249874221000,4.522220947265625,0.00366519158706069,-0.0012217304902151227,-0.0024434609804302454
1767621249914336800,4.562336669921875,0.0024434609804302454,0.0006108652451075613,0.0006108652451075613
1767621249954454800,4.602454833984375,-0.0006108652451075613,0.0006108652451075613,-0.0024434609804302454
1767621249994572000,4.642572021484375,0,0.0012217304902151227,0.0024434609804302454
1767621250014671400,4.66267138671875,-0.0024434609804302454,0.0012217304902151227,0.0012217304902151227
1767621250034690800,4.68269091796875,0,-0.0012217304902151227,-0.0006108652451075613
1767621250074813400,4.7228134765625,-0.0024434609804302454,0.0006108652451075613,0.0006108652451075613
1767621250114911500,4.762911376953125,0.0006108652451075613,0,0.0024434609804302454
1767621250155022300,4.803022216796875,-0.0012217304902151227,0.0012217304902151227,0.00427605677396059
1767621250195140400,4.843140380859375,0,0.0006108652451075613,0.001832595793530345
1767621250215242200,4.8632421875,0.0012217304902151227,0,0.0006108652451075613
1767621250235256000,4.883256103515625,-0.0006108652451075613,0.0024434609804302454,0.00427605677396059
1767621250275374800,4.923374755859375,-0.0012217304902151227,0.0006108652451075613,0.0012217304902151227
1767621250295478000,4.94347802734375,-0.003054326167330146,0.0006108652451075613,0.001832595793530345
1767621250315493600,4.96349365234375,-0.0012217304902151227,0.0024434609804302454,0.003054326167330146
1767621250355613200,5.00361328125,-0.001832595793530345,-0.0012217304902151227,0.0006108652451075613
1767621250395724300,5.043724365234375,-0.0012217304902151227,-0.0006108652451075613,0
1767621250415824000,5.063823974609375,-0.0006108652451075613,-0.0012217304902151227,0.0024434609804302454
1767621250435845000,5.08384521484375,0,0.0012217304902151227,-0.0006108652451075613
1767621250455951000,5.103951171875,0.0024434609804302454,-0.0012217304902151227,-0.0024434609804302454
1767621250475970000,5.123969970703125,-0.0006108652451075613,0.001832595793530345,0.001832595793530345
1767621250516085500,5.16408544921875,-0.0006108652451075613,0.0006108652451075613,0.003054326167330146
1767621250556204000,5.2042041015625,0,-0.0006108652451075613,-0.003054326167330146
1767621250576303000,5.22430322265625,0.0012217304902151227,-0.0024434609804302454,-0.0024434609804302454
1767621250596321500,5.244321533203125,-0.001832595793530345,0,0
1767621250636424700,5.2844248046875,0.003054326167330146,-0.0024434609804302454,-0.003054326167330146
1767621250676539600,5.32453955078125,0.001832595793530345,-0.0012217304902151227,0
1767621250716657200,5.3646572265625,0,-0.0006108652451075613,0
1767621250756772000,5.404772216796875,-0.0006108652451075613,-0.001832595793530345,0.0012217304902151227
1767621250776870000,5.424869873046875,0,-0.0012217304902151227,-0.0006108652451075613
1767621250796885200,5.44488525390625,-0.001832595793530345,-0.003054326167330146,0.0012217304902151227
1767621250836999200,5.484999267578125,-0.0006108652451075613,-0.0012217304902151227,-0.0012217304902151227
1767621250877104000,5.525104248046875,0.0024434609804302454,-0.001832595793530345,-0.0006108652451075613
1767621250917216300,5.56521630859375,-0.003054326167330146,0.0012217304902151227,0
1767621250957340000,5.60533984375,0.001832595793530345,0,-0.0006108652451075613
1767621250997462500,5.645462646484375,0,0.0006108652451075613,-0.0012217304902151227
1767621251037572900,5.68557275390625,0,-0.0006108652451075613,0.001832595793530345
1767621251077688600,5.7256884765625,0,-0.001832595793530345,-0.0006108652451075613
1767621251117804300,5.76580419921875,0,-0.0024434609804302454,0
1767621251157920800,5.805920654296875,-0.0012217304902151227,0.0012217304902151227,0
1767621251198033400,5.846033447265625,0.001832595793530345,-0.0012217304902151227,-0.001832595793530345
1767621251238151200,5.886151123046875,0,-0.0012217304902151227,-0.0012217304902151227
1767621251278267400,5.926267333984375,0.0012217304902151227,0,-0.0012217304902151227
1767621251318376200,5.966376220703125,-0.0006108652451075613,-0.0006108652451075613,0.0012217304902151227
1767621251358480100,6.006480224609375,-0.0012217304902151227,0.0006108652451075613,0
1767621251398594600,6.046594482421875,-0.0006108652451075613,-0.0006108652451075613,-0.0006108652451075613
1767621251438715600,6.086715576171875,0.0006108652451075613,-0.0012217304902151227,-0.00427605677396059
1767621251478824200,6.12682421875,0.0006108652451075613,0,-0.0024434609804302454
1767621251518938400,6.1669384765625,0,0,-0.0012217304902151227
1767621251559052300,6.20705224609375,-0.0012217304902151227,-0.0024434609804302454,-0.0006108652451075613
1767621251599165400,6.24716552734375,-0.0006108652451075613,-0.0024434609804302454,0.0012217304902151227
1767621251639268600,6.2872685546875,-0.001832595793530345,0,0.0012217304902151227
1767621251679381800,6.3273818359375,0.0006108652451075613,-0.0006108652451075613,0.0012217304902151227
1767621251699470300,6.34747021484375,0.001832595793530345,0,-0.0006108652451075613
1767621251719480800,6.367480712890625,0.0006108652451075613,0,0
1767621251759580000,6.407579833984375,0,0,0
1767621251779676000,6.427676025390625,-0.0012217304902151227,-0.0006108652451075613,0.0006108652451075613
1767621251799689200,6.447689208984375,0,0.0024434609804302454,0.0024434609804302454
1767621251839799300,6.48779931640625,0,0,0.0024434609804302454
1767621251859897900,6.50789794921875,-0.0006108652451075613,-0.0006108652451075613,-0.0006108652451075613
1767621251879914000,6.5279140625,0.0006108652451075613,0.001832595793530345,0.001832595793530345
1767621251920028200,6.568028076171875,0.003054326167330146,0.0012217304902151227,0
1767621251960148500,6.6081484375,0.0024434609804302454,0,0.0024434609804302454
1767621252000264700,6.6482646484375,-0.001832595793530345,-0.001832595793530345,0.0006108652451075613
1767621252040377600,6.688377685546875,0,0,0.0006108652451075613
1767621252080489500,6.728489501953125,0,-0.0006108652451075613,-0.001832595793530345
1767621252120622000,6.7686220703125,0.0012217304902151227,-0.0006108652451075613,-0.0012217304902151227
1767621252160744200,6.808744140625,0,0.0012217304902151227,0.0012217304902151227
1767621252180842200,6.82884228515625,-0.0024434609804302454,0.0006108652451075613,0
1767621252200859600,6.848859619140625,0.0006108652451075613,0.001832595793530345,0.0024434609804302454
1767621252220960800,6.868960693359375,-0.001832595793530345,-0.0006108652451075613,0
1767621252240980200,6.888980224609375,-0.0006108652451075613,0,0.0006108652451075613
1767621252281097200,6.92909716796875,0.0012217304902151227,-0.0006108652451075613,-0.0012217304902151227
1767621252321202000,6.969201904296875,-0.0006108652451075613,0.0006108652451075613,0.001832595793530345
1767621252361316400,7.00931640625,-0.0012217304902151227,-0.0006108652451075613,-0.0006108652451075613
1767621252381419300,7.029419189453125,-0.0012217304902151227,-0.0006108652451075613,0.0012217304902151227
1767621252401438200,7.049438232421875,0.0006108652451075613,0.0006108652451075613,0.0006108652451075613
1767621252441560000,7.08956005859375,-0.0012217304902151227,0.0006108652451075613,0.0006108652451075613
1767621252481690000,7.129690185546875,-0.0012217304902151227,-0.0006108652451075613,0
1767621252521812500,7.1698125,-0.001832595793530345,0.0006108652451075613,-0.0012217304902151227
1767621252561924400,7.20992431640625,-0.0006108652451075613,0,0
1767621252582027300,7.23002734375,0,0.0006108652451075613,0.0012217304902151227
1767621252602045000,7.250044921875,-0.001832595793530345,0.0012217304902151227,0.0006108652451075613
1767621252642165500,7.29016552734375,-0.00427605677396059,0.0012217304902151227,0.001832595793530345
1767621252682290000,7.3302900390625,-0.0006108652451075613,0.0012217304902151227,0
1767621252722417700,7.370417724609375,0.0024434609804302454,-0.0012217304902151227,-0.001832595793530345
1767621252762546200,7.410546142578125,0.0012217304902151227,0.0012217304902151227,-0.0006108652451075613
1767621252802651000,7.45065087890625,-0.0012217304902151227,-0.0012217304902151227,0.001832595793530345
1767621252842763500,7.490763427734375,0.00366519158706069,-0.0006108652451075613,-0.0006108652451075613
1767621252882889500,7.530889404296875,0.0012217304902151227,-0.001832595793530345,-0.0006108652451075613
1767621252923011000,7.571010986328125,0.0006108652451075613,0.0012217304902151227,0.0012217304902151227
1767621252963129900,7.6111298828125,0.0012217304902151227,0.0006108652451075613,0.0006108652451075613
1767621253003252000,7.651251953125,-0.001832595793530345,0,0.001832595793530345
1767621253043368000,7.691367919921875,0.00366519158706069,0,-0.00366519158706069
1767621253083490600,7.731490478515625,-0.0012217304902151227,0,-0.0006108652451075613
1767621253123611000,7.77161083984375,0,-0.001832595793530345,0.001832595793530345
1767621253163739400,7.811739501953125,-0.0006108652451075613,-0.0006108652451075613,0
1767621253203861000,7.851861083984375,0,-0.0012217304902151227,0
1767621253243979500,7.8919794921875,0,0.0006108652451075613,0
1767621253284093200,7.93209326171875,0.003054326167330146,-0.0006108652451075613,-0.0006108652451075613
1767621253324213200,7.972213134765625,-0.001832595793530345,0.0006108652451075613,0.0024434609804302454
1767621253364332000,8.01233203125,0.0024434609804302454,0.0012217304902151227,-0.0006108652451075613
1767621253404455000,8.052454833984376,-0.0012217304902151227,-0.001832595793530345,0
1767621253444584000,8.092583984375,0.0024434609804302454,0.0006108652451075613,-0.0006108652451075613
1767621253464687900,8.11268798828125,0.0006108652451075613,-0.0006108652451075613,0.0006108652451075613
1767621253484709400,8.13270947265625,-0.0012217304902151227,0.0006108652451075613,0.00427605677396059
1767621253524820000,8.172820068359375,-0.0006108652451075613,-0.001832595793530345,-0.0012217304902151227
1767621253564935700,8.212935791015624,0.0012217304902151227,0.001832595793530345,0.0012217304902151227
1767621253605057800,8.253057861328125,0.0012217304902151227,-0.0024434609804302454,-0.0006108652451075613
1767621253645181400,8.293181396484375,0,0,0.0012217304902151227
1767621253685307100,8.33330712890625,0,0.001832595793530345,0.0012217304902151227
1767621253725424000,8.373424072265625,0.0012217304902151227,0,0.0012217304902151227
1767621253745517300,8.393517333984375,0.0012217304902151227,-0.0012217304902151227,0.0006108652451075613
1767621253765536300,8.413536376953125,0.0012217304902151227,0.001832595793530345,-0.001832595793530345
1767621253805659000,8.453658935546875,-0.0012217304902151227,0,0.0006108652451075613
1767621253845780200,8.4937802734375,0,0,0.0012217304902151227
1767621253885910800,8.533910888671874,-0.0012217304902151227,-0.001832595793530345,0.0012217304902151227
1767621253926033200,8.574033203125,-0.0006108652451075613,0.0012217304902151227,0.003054326167330146
1767621253966152000,8.61415185546875,0,0.0006108652451075613,0.0012217304902151227
1767621254006267000,8.654266845703125,-0.0024434609804302454,0,0.0006108652451075613
1767621254046384600,8.694384521484375,-0.0012217304902151227,-0.0012217304902151227,0.0012217304902151227
1767621254086509300,8.73450927734375,0.001832595793530345,-0.0006108652451075613,0
1767621254126608400,8.7746083984375,0.0012217304902151227,-0.0012217304902151227,-0.0006108652451075613
1767621254166726700,8.8147265625,-0.001832595793530345,-0.003054326167330146,-0.0006108652451075613
1767621254206844400,8.854844482421875,0.0006108652451075613,0.0006108652451075613,0
1767621254246965200,8.89496533203125,0.0012217304902151227,-0.001832595793530345,-0.0012217304902151227
1767621254287089700,8.935089599609375,0.0006108652451075613,-0.0012217304902151227,0
1767621254327203000,8.975203125,-0.0006108652451075613,-0.0006108652451075613,-0.0024434609804302454
1767621254367309000,9.01530908203125,0.0012217304902151227,0.0006108652451075613,0.001832595793530345
1767621254407424000,9.055424072265625,-0.0012217304902151227,-0.0006108652451075613,0
1767621254447546600,9.095546630859374,-0.0012217304902151227,0.0012217304902151227,-0.0012217304902151227
1767621254487657200,9.1356572265625,-0.0006108652451075613,-0.0012217304902151227,0.0012217304902151227
1767621254527778300,9.1757783203125,0.0012217304902151227,-0.0024434609804302454,-0.001832595793530345
1767621254567901000,9.21590087890625,-0.0012217304902151227,-0.001832595793530345,0
1767621254608033500,9.256033447265626,0.0006108652451075613,0,0.003054326167330146
1767621254648159000,9.296158935546876,-0.0012217304902151227,-0.0012217304902151227,0.0006108652451075613
1767621254688282600,9.33628271484375,0.0012217304902151227,-0.0006108652451075613,0.0024434609804302454
1767621254728402000,9.37640185546875,-0.0006108652451075613,0.0024434609804302454,0.001832595793530345
1767621254768519400,9.41651953125,-0.003054326167330146,-0.0006108652451075613,0.0012217304902151227
1767621254788625000,9.436625,0,-0.001832595793530345,0.0006108652451075613
1767621254808647200,9.456647216796876,-0.001832595793530345,0.0006108652451075613,0.001832595793530345
1767621254848773600,9.496773681640626,0,0.0012217304902151227,0.003054326167330146
1767621254888889600,9.5368896484375,0,0.0006108652451075613,-0.0012217304902151227
1767621254929009700,9.577009765625,0.0012217304902151227,-0.0012217304902151227,0.0006108652451075613
1767621254969123300,9.617123291015625,-0.0024434609804302454,-0.0006108652451075613,0.0024434609804302454
1767621255009244200,9.657244140625,-0.001832595793530345,0.0006108652451075613,0.001832595793530345
1767621255029351200,9.67735107421875,-0.0006108652451075613,0,0
1767621255049369300,9.697369384765626,-0.0006108652451075613,-0.0012217304902151227,0.001832595793530345
1767621255089496300,9.737496337890626,-0.0006108652451075613,0.0006108652451075613,0.0006108652451075613
1767621255129622300,9.777622314453126,0,-0.0012217304902151227,-0.001832595793530345
1767621255169757700,9.8177578125,0,-0.0006108652451075613,-0.0006108652451075613
1767621255209880800,9.857880859375,-0.001832595793530345,-0.0012217304902151227,-0.0012217304902151227
1767621255250012000,9.898011962890624,0,0,0.003054326167330146
1767621255290149600,9.938149658203125,-0.0012217304902151227,0,0.0012217304902151227
1767621255330283800,9.97828369140625,-0.001832595793530345,-0.0006108652451075613,-0.0012217304902151227
1767621255370424300,10.01842431640625,-0.0006108652451075613,0.001832595793530345,0.00366519158706069
1767621255390537200,10.038537109375,0,-0.0006108652451075613,0
1767621255410561000,10.05856103515625,-0.0012217304902151227,0.001832595793530345,0.0024434609804302454
1767621255450711600,10.098711669921874,0,0,0.001832595793530345
1767621255470812400,10.1188125,0.001832595793530345,0,0
1767621255490908200,10.138908203125,-0.0012217304902151227,-0.0012217304902151227,-0.0006108652451075613
1767621255531043000,10.17904296875,0.0012217304902151227,-0.0012217304902151227,-0.0024434609804302454
1767621255571251000,10.2192509765625,-0.0012217304902151227,-0.0012217304902151227,-0.0012217304902151227
1767621255611436000,10.25943603515625,-0.00427605677396059,-0.0012217304902151227,0.00427605677396059
1767621255651562800,10.299562744140625,0,-0.001832595793530345,-0.0012217304902151227
1767621255691679700,10.3396796875,0.0024434609804302454,-0.001832595793530345,-0.0012217304902151227
1767621255731798300,10.37979833984375,0,-0.0006108652451075613,0
1767621255751900400,10.399900390625,0,0.0006108652451075613,0
1767621255771920000,10.419919921875,-0.001832595793530345,-0.0006108652451075613,-0.001832595793530345
1767621255812042500,10.46004248046875,-0.001832595793530345,0,-0.0006108652451075613
1767621255852164000,10.5001640625,-0.0006108652451075613,-0.001832595793530345,0.0012217304902151227
1767621255892281900,10.54028173828125,-0.0006108652451075613,0.0006108652451075613,0.0024434609804302454
1767621255932391700,10.5803916015625,-0.003054326167330146,0,0.0012217304902151227
1767621255972510700,10.6205107421875,0.0012217304902151227,-0.003054326167330146,0.0006108652451075613
1767621255992613600,10.640613525390625,-0.0006108652451075613,-0.0012217304902151227,-0.0024434609804302454
1767621256012630800,10.660630859375,-0.0006108652451075613,0,0.001832595793530345
1767621256052756200,10.700756103515625,0.001832595793530345,-0.001832595793530345,-0.0012217304902151227
1767621256092883500,10.740883544921875,-0.0006108652451075613,-0.0006108652451075613,0.0012217304902151227
1767621256133006600,10.781006591796874,-0.001832595793530345,-0.0006108652451075613,0.0006108652451075613
1767621256173124900,10.821124755859374,-0.0012217304902151227,-0.0006108652451075613,0
1767621256213242400,10.861242431640624,0.0006108652451075613,-0.001832595793530345,-0.001832595793530345
1767621256253365200,10.901365234375,0.0012217304902151227,-0.0006108652451075613,-0.0006108652451075613
1767621256293485600,10.941485595703124,0,-0.0012217304902151227,-0.0006108652451075613
1767621256333608000,10.98160791015625,0.0006108652451075613,-0.0006108652451075613,-0.0006108652451075613
1767621256373727500,11.0217275390625,-0.0012217304902151227,-0.0012217304902151227,-0.0006108652451075613
1767621256413838600,11.061838623046874,0.0006108652451075613,0.0012217304902151227,0.0006108652451075613
1767621256453960700,11.101960693359375,-0.001832595793530345,-0.0012217304902151227,0.0006108652451075613
1767621256494087400,11.14208740234375,-0.0012217304902151227,-0.0012217304902151227,0
1767621256534200300,11.182200439453124,0,0.0024434609804302454,0.001832595793530345
1767621256574318300,11.222318359375,-0.0012217304902151227,0.0006108652451075613,0
1767621256614440200,11.262440185546875,0.003054326167330146,-0.0006108652451075613,-0.001832595793530345
1767621256654547200,11.302547119140625,-0.0012217304902151227,0,0.0006108652451075613
1767621256694658300,11.342658203125,-0.001832595793530345,-0.0012217304902151227,-0.0006108652451075613
1767621256734772700,11.382772705078125,0,0.0012217304902151227,0
1767621256774897000,11.42289697265625,-0.0012217304902151227,0,0
1767621256795006200,11.443006103515625,-0.0012217304902151227,0.001832595793530345,0.0012217304902151227
1767621256815026700,11.463026611328125,0.0024434609804302454,0.001832595793530345,0
1767621256855146800,11.503146728515626,-0.0006108652451075613,-0.001832595793530345,-0.0012217304902151227
1767621256895259000,11.5432587890625,0.0012217304902151227,0.0006108652451075613,-0.0012217304902151227
1767621256935372800,11.583372802734376,-0.0012217304902151227,0.0006108652451075613,0.001832595793530345
1767621256975499300,11.623499267578126,0.0006108652451075613,-0.0012217304902151227,-0.0006108652451075613
1767621257015624700,11.663624755859376,-0.0006108652451075613,-0.001832595793530345,-0.0024434609804302454
1767621257055753200,11.703753173828124,0.0024434609804302454,-0.0006108652451075613,0
1767621257095879200,11.743879150390624,0.0012217304902151227,-0.001832595793530345,0.0006108652451075613
1767621257135990000,11.783989990234375,-0.0024434609804302454,0.0006108652451075613,0
1767621257176109800,11.82410986328125,0.001832595793530345,0,0.0012217304902151227
1767621257216236500,11.864236572265625,0,-0.0006108652451075613,0.0024434609804302454
1767621257236338000,11.884337890625,0.0006108652451075613,-0.0012217304902151227,0.0006108652451075613
1767621257256358400,11.9043583984375,-0.003054326167330146,0,0.0012217304902151227
1767621257296479500,11.9444794921875,-0.0012217304902151227,-0.0012217304902151227,0
1767621257316580000,11.964580078125,0,0.0012217304902151227,0.00366519158706069
1767621257336594000,11.984593994140624,-0.0006108652451075613,0,0.0006108652451075613
1767621257376708600,12.02470849609375,0.0006108652451075613,0,0.0012217304902151227
1767621257396811800,12.044811767578125,0.0012217304902151227,-0.0006108652451075613,0
1767621257416832800,12.064832763671875,0.001832595793530345,0.0006108652451075613,-0.0024434609804302454
1767621257456953600,12.10495361328125,0,0,-0.0012217304902151227
1767621257497081600,12.14508154296875,-0.0006108652451075613,0.0006108652451075613,0
1767621257537206500,12.18520654296875,0.0012217304902151227,-0.0012217304902151227,0.0006108652451075613
1767621257577325300,12.2253251953125,-0.0012217304902151227,0,-0.0006108652451075613
1767621257617472500,12.265472412109375,0,0,-0.0006108652451075613
1767621257657586200,12.305586181640624,0.0012217304902151227,-0.0012217304902151227,0.0006108652451075613
1767621257697710800,12.3457109375,0.001832595793530345,0.0006108652451075613,-0.0006108652451075613
1767621257737834800,12.385834716796875,0.0024434609804302454,-0.001832595793530345,0.0012217304902151227
1767621257777949200,12.42594921875,-0.0024434609804302454,-0.0006108652451075613,-0.0024434609804302454
1767621257818062600,12.4660625,0,-0.001832595793530345,-0.0012217304902151227
1767621257858166300,12.506166259765624,-0.003054326167330146,0,-0.0006108652451075613
1767621257898271200,12.546271240234375,-0.0006108652451075613,-0.001832595793530345,0.0024434609804302454
1767621257918366700,12.56636669921875,-0.001832595793530345,0.001832595793530345,0
1767621257938382600,12.586382568359374,-0.001832595793530345,-0.0006108652451075613,0.001832595793530345
1767621257978499800,12.626499755859374,0,0.0012217304902151227,0.0006108652451075613
1767621258018623500,12.66662353515625,-0.0012217304902151227,0.0006108652451075613,0.0006108652451075613
1767621258058733000,12.706733154296876,-0.0012217304902151227,-0.0006108652451075613,0
1767621258098835200,12.746835205078124,0,0,0.0012217304902151227
1767621258118946800,12.76694677734375,0.0024434609804302454,0.0012217304902151227,-0.0006108652451075613
1767621258138928000,12.78692822265625,0.001832595793530345,0,0.0006108652451075613
1767621258179041800,12.827041748046875,-0.001832595793530345,0.0006108652451075613,-0.0012217304902151227
1767621258219155500,12.867155517578125,0.0006108652451075613,-0.0012217304902151227,-0.0024434609804302454
1767621258239252000,12.887251953125,-0.0012217304902151227,-0.0012217304902151227,-0.001832595793530345
1767621258259264800,12.9072646484375,0,-0.001832595793530345,-0.00427605677396059
1767621258279361500,12.927361572265625,0.0012217304902151227,0.001832595793530345,0
1767621258299378000,12.9473779296875,-0.0012217304902151227,-0.001832595793530345,-0.001832595793530345
1767621258339488300,12.98748828125,0.0012217304902151227,0,0
1767621258379596000,13.027595947265626,-0.001832595793530345,0.001832595793530345,-0.0006108652451075613
1767621258419716600,13.067716552734375,-0.001832595793530345,0.0006108652451075613,0.001832595793530345
1767621258459832600,13.10783251953125,-0.0006108652451075613,0,0.0012217304902151227
1767621258499944700,13.14794482421875,0.001832595793530345,-0.0012217304902151227,-0.001832595793530345
1767621258540059400,13.188059326171874,0.0012217304902151227,-0.0006108652451075613,-0.001832595793530345
1767621258580162600,13.22816259765625,-0.001832595793530345,0,0.0006108652451075613
1767621258600264700,13.2482646484375,-0.0006108652451075613,0.0006108652451075613,0.0006108652451075613
1767621258620286000,13.268285888671874,-0.0006108652451075613,-0.0006108652451075613,-0.0006108652451075613
1767621258660403000,13.30840283203125,0,-0.0006108652451075613,0
1767621258680495000,13.3284951171875,-0.0024434609804302454,0.0012217304902151227,0.00366519158706069
1767621258700508000,13.3485078125,-0.0012217304902151227,0.0006108652451075613,0
1767621258720600000,13.36860009765625,-0.0012217304902151227,-0.001832595793530345,-0.0006108652451075613
1767621258740613400,13.38861328125,0.0006108652451075613,-0.0006108652451075613,0.001832595793530345
1767621258780726300,13.428726318359375,0.0006108652451075613,0,0.0024434609804302454
1767621258820831700,13.468831787109375,0.0012217304902151227,-0.0012217304902151227,0.0012217304902151227
1767621258860946000,13.50894580078125,-0.001832595793530345,0.0006108652451075613,0.003054326167330146
1767621258901059000,13.54905908203125,0.001832595793530345,-0.0006108652451075613,0.0006108652451075613
1767621258921160200,13.56916015625,-0.0012217304902151227,0,0
1767621258941180700,13.5891806640625,-0.0012217304902151227,0.0006108652451075613,0.001832595793530345
1767621258981299000,13.629298828125,0.0012217304902151227,0,0
1767621259021408000,13.669407958984374,-0.0006108652451075613,0.0006108652451075613,0.004886921960860491
1767621259061511400,13.709511474609375,-0.0006108652451075613,0.0006108652451075613,0.0012217304902151227
1767621259101627000,13.749626953125,-0.0006108652451075613,-0.003054326167330146,-0.00366519158706069
1767621259141745000,13.789744873046875,0.0012217304902151227,-0.0006108652451075613,-0.001832595793530345
1767621259181860600,13.829860595703124,0.0012217304902151227,0.0024434609804302454,0.0012217304902151227
1767621259201962800,13.849962646484375,0.0012217304902151227,-0.0006108652451075613,-0.0012217304902151227
1767621259221978600,13.869978515625,0.001832595793530345,0,-0.0012217304902151227
1767621259262091300,13.91009130859375,-0.0024434609804302454,0.0012217304902151227,0.0006108652451075613
1767621259302198300,13.9501982421875,-0.0012217304902151227,-0.0006108652451075613,0.00366519158706069
1767621259322297300,13.97029736328125,0.001832595793530345,-0.0006108652451075613,0.001832595793530345
1767621259342316500,13.990316650390625,-0.0012217304902151227,0.0006108652451075613,0.001832595793530345
1767621259362420200,14.010420166015624,0.0006108652451075613,0.0006108652451075613,-0.0006108652451075613
1767621259382440700,14.030440673828124,-0.0006108652451075613,0.00366519158706069,0.001832595793530345
1767621259422559000,14.07055908203125,-0.0012217304902151227,-0.001832595793530345,0.0012217304902151227
1767621259462677500,14.110677490234375,-0.0006108652451075613,0,0
1767621259502800600,14.150800537109374,0,-0.0006108652451075613,0.0006108652451075613
1767621259542914000,14.1909140625,0.0012217304902151227,-0.0012217304902151227,-0.001832595793530345
1767621259583032800,14.23103271484375,-0.001832595793530345,-0.0006108652451075613,0.0012217304902151227
1767621259623152600,14.271152587890626,-0.003054326167330146,-0.0012217304902151227,0.0012217304902151227
1767621259663276000,14.311276123046875,0.0006108652451075613,-0.001832595793530345,-0.0012217304902151227
1767621259703392300,14.351392333984375,0.0006108652451075613,0,-0.0012217304902151227
1767621259743501600,14.39150146484375,0.0006108652451075613,0,0
1767621259783653000,14.431653076171875,0,-0.0006108652451075613,0.003054326167330146
1767621259823745800,14.471745849609375,-0.0006108652451075613,-0.0024434609804302454,-0.0006108652451075613
1767621259863861500,14.511861572265625,0.001832595793530345,-0.0006108652451075613,0.0012217304902151227
1767621259903975400,14.551975341796876,-0.0012217304902151227,-0.0012217304902151227,-0.0012217304902151227
1767621259944085000,14.5920849609375,-0.0012217304902151227,-0.001832595793530345,-0.001832595793530345
1767621259964179200,14.61217919921875,-0.001832595793530345,-0.0006108652451075613,0.0012217304902151227
1767621259984196400,14.6321962890625,0.0012217304902151227,-0.0006108652451075613,0
1767621260024300800,14.67230078125,0.0006108652451075613,-0.0006108652451075613,-0.0006108652451075613
1767621260064407000,14.712406982421875,-0.0024434609804302454,0.0006108652451075613,0.0006108652451075613
1767621260104516600,14.7525166015625,-0.0006108652451075613,-0.0012217304902151227,-0.001832595793530345
1767621260124612400,14.7726123046875,-0.0012217304902151227,-0.001832595793530345,-0.001832595793530345
1767621260144644900,14.792644775390626,0.0006108652451075613,0.0012217304902151227,0.001832595793530345
1767621260184756500,14.832756591796874,0.001832595793530345,0,0
1767621260224859400,14.872859375,-0.0012217304902151227,-0.001832595793530345,0
1767621260264962000,14.912962158203126,-0.001832595793530345,-0.0006108652451075613,0.0006108652451075613
1767621260305078800,14.953078857421875,-0.0024434609804302454,-0.0006108652451075613,-0.0006108652451075613
1767621260345197800,14.99319775390625,0.0012217304902151227,-0.001832595793530345,-0.0006108652451075613
1767621260365296400,15.01329638671875,-0.0006108652451075613,-0.0006108652451075613,-0.0024434609804302454
1767621260385314000,15.03331396484375,-0.0006108652451075613,0.0012217304902151227,0.003054326167330146
1767621260425429500,15.073429443359375,0.0012217304902151227,0.0006108652451075613,-0.0012217304902151227
1767621260465548800,15.113548828125,0.0006108652451075613,-0.001832595793530345,-0.0024434609804302454
1767621260505654800,15.15365478515625,0.0024434609804302454,0,0
1767621260545766100,15.19376611328125,-0.001832595793530345,0,0.0012217304902151227
1767621260585883000,15.2338828125,0.0006108652451075613,-0.0006108652451075613,0
1767621260626005800,15.274005859375,-0.0006108652451075613,0,0.0012217304902151227
1767621260666120700,15.31412060546875,-0.0024434609804302454,-0.0006108652451075613,-0.0006108652451075613
1767621260706233900,15.35423388671875,-0.0012217304902151227,0.0006108652451075613,-0.0012217304902151227
1767621260746334200,15.394334228515625,0.0006108652451075613,-0.0024434609804302454,-0.001832595793530345
1767621260786442800,15.43444287109375,-0.001832595793530345,0,0
1767621260806543400,15.45454345703125,0,0.0006108652451075613,0.0006108652451075613
1767621260826551000,15.474551025390625,0.0006108652451075613,0.0006108652451075613,0
1767621260866657000,15.514656982421876,0,0.0006108652451075613,0.0012217304902151227
1767621260906760700,15.5547607421875,-0.0006108652451075613,0.0012217304902151227,0.001832595793530345
1767621260926857200,15.574857177734375,0.0012217304902151227,-0.0024434609804302454,0.0006108652451075613
1767621260946871300,15.594871337890625,-0.0006108652451075613,0,0.001832595793530345
1767621260986974700,15.634974609375,-0.0012217304902151227,0,0.0006108652451075613
1767621261007070000,15.655070068359375,-0.00366519158706069,0,0.00366519158706069
1767621261027083800,15.675083740234374,0,0.0012217304902151227,0.0006108652451075613
1767621261067208400,15.71520849609375,-0.0006108652451075613,-0.0012217304902151227,-0.0012217304902151227
1767621261107332600,15.75533251953125,-0.0012217304902151227,0.0006108652451075613,0.0012217304902151227
1767621261147459300,15.795459228515625,0.0024434609804302454,-0.0006108652451075613,-0.0012217304902151227
1767621261187587800,15.835587890625,0.0012217304902151227,-0.0006108652451075613,0
1767621261227714000,15.875714111328126,0.003054326167330146,-0.00427605677396059,-0.003054326167330146
1767621261247818500,15.895818603515625,-0.0006108652451075613,0,0.0006108652451075613
1767621261267840000,15.915840087890626,0.0006108652451075613,-0.0006108652451075613,0
1767621261307965400,15.95596533203125,-0.0012217304902151227,0.0012217304902151227,0.001832595793530345
1767621261348094200,15.99609423828125,-0.0012217304902151227,0.001832595793530345,0
1767621261388216800,16.036216796875,-0.0006108652451075613,0.0012217304902151227,0
1767621261408319000,16.056319091796876,0.0006108652451075613,-0.0012217304902151227,-0.0006108652451075613
1767621261428336600,16.076336669921876,0,0,0.0006108652451075613
1767621261468480800,16.116480712890624,0,0.0012217304902151227,0.0012217304902151227
1767621261508590600,16.156590576171876,0.0012217304902151227,-0.0006108652451075613,0.001832595793530345
1767621261548707300,16.196707275390626,-0.0006108652451075613,-0.0012217304902151227,-0.0006108652451075613
1767621261588858600,16.236858642578124,-0.0012217304902151227,0,0.0012217304902151227
1767621261628984800,16.27698486328125,-0.0012217304902151227,0.0006108652451075613,0.0006108652451075613
1767621261669107700,16.317107666015627,0,0.0012217304902151227,0.001832595793530345
1767621261709263000,16.35726318359375,-0.0006108652451075613,-0.0012217304902151227,0
1767621261749387500,16.397387451171873,0,0,0.0012217304902151227
1767621261789510400,16.437510498046876,-0.0012217304902151227,-0.001832595793530345,-0.0006108652451075613
1767621261829632300,16.47763232421875,0,0.0012217304902151227,0
1767621261869753000,16.517753173828126,0.0006108652451075613,0.0012217304902151227,-0.0006108652451075613
1767621261909872400,16.557872314453125,0.0006108652451075613,0.0006108652451075613,-0.0006108652451075613
1767621261950006300,16.59800634765625,-0.0006108652451075613,0,0.001832595793530345
1767621261990128000,16.638128173828125,-0.0012217304902151227,-0.0006108652451075613,0
1767621262030254000,16.678254150390625,0,0.0006108652451075613,0.001832595793530345
1767621262070382000,16.718382080078126,-0.003054326167330146,-0.0012217304902151227,0.001832595793530345
1767621262110508500,16.758508544921874,-0.001832595793530345,0.0012217304902151227,0.0012217304902151227
1767621262150607600,16.798607666015624,-0.0006108652451075613,0.0006108652451075613,0.003054326167330146
1767621262190714600,16.838714599609375,0.0006108652451075613,0,-0.0006108652451075613
1767621262230829600,16.87882958984375,-0.001832595793530345,0.0006108652451075613,0.0012217304902151227
1767621262270956500,16.91895654296875,0.0006108652451075613,0.0012217304902151227,0.0012217304902151227
1767621262311084000,16.959083984375,0.0006108652451075613,0.0012217304902151227,0
1767621262351199200,16.99919921875,-0.001832595793530345,0.0006108652451075613,0.0006108652451075613
1767621262391313000,17.03931298828125,0.003054326167330146,-0.0012217304902151227,0
1767621262431420400,17.07942041015625,-0.0006108652451075613,0.0012217304902151227,0
1767621262471536400,17.119536376953125,0,0,0
1767621262511651000,17.159651123046874,-0.001832595793530345,0.0012217304902151227,0.001832595793530345
1767621262551769900,17.199769775390624,-0.001832595793530345,0.0006108652451075613,0
1767621262591891000,17.239890869140623,0.0006108652451075613,0,0
1767621262632017400,17.280017333984375,-0.0006108652451075613,0.0012217304902151227,0.001832595793530345
1767621262672124200,17.320124267578127,-0.001832595793530345,-0.0012217304902151227,-0.0012217304902151227
1767621262712235500,17.360235595703124,-0.0006108652451075613,-0.0006108652451075613,0.001832595793530345
1767621262732339700,17.380339599609375,0.001832595793530345,0.0012217304902151227,0.0012217304902151227
1767621262752359200,17.400359130859375,0,0.0006108652451075613,0.0012217304902151227
1767621262792481800,17.440481689453126,-0.0024434609804302454,-0.0006108652451075613,0.0012217304902151227
1767621262832607200,17.480607177734374,-0.0012217304902151227,-0.0006108652451075613,0
1767621262872725200,17.520725341796876,-0.0012217304902151227,0.0012217304902151227,0.0024434609804302454
1767621262912841700,17.560841796875,0,0.0006108652451075613,0.00366519158706069
1767621262952966000,17.6009658203125,0.0024434609804302454,0,-0.0012217304902151227
1767621262993093400,17.64109326171875,-0.0006108652451075613,-0.001832595793530345,0
1767621263033213000,17.681212890625,0.0006108652451075613,-0.0006108652451075613,0.001832595793530345
1767621263073333200,17.721333251953126,-0.0006108652451075613,-0.0012217304902151227,0
1767621263093436400,17.7414365234375,-0.0006108652451075613,0,0
1767621263113461200,17.761461181640627,-0.0024434609804302454,0,-0.0012217304902151227
1767621263153584000,17.801584228515626,-0.0006108652451075613,-0.0012217304902151227,0
1767621263193707500,17.84170751953125,0,-0.0006108652451075613,0.0012217304902151227
1767621263233836300,17.881836181640626,-0.0024434609804302454,-0.0006108652451075613,-0.0012217304902151227
1767621263273965800,17.9219658203125,0.0012217304902151227,0.0006108652451075613,-0.0006108652451075613
1767621263314086100,17.962086181640625,-0.0024434609804302454,0.0006108652451075613,0.0012217304902151227
1767621263354211000,18.002211181640625,0,0,0.0006108652451075613
1767621263394369800,18.042369873046876,-0.0006108652451075613,0.0024434609804302454,0.001832595793530345
1767621263434497000,18.0824970703125,-0.001832595793530345,0,0.0012217304902151227
1767621263474629400,18.12262939453125,0,-0.001832595793530345,0
1767621263514762000,18.162761962890624,0.0006108652451075613,-0.0006108652451075613,-0.0012217304902151227
1767621263534871000,18.18287109375,-0.0012217304902151227,0.0006108652451075613,0
1767621263554896100,18.202896240234374,0,-0.0024434609804302454,-0.001832595793530345
1767621263595016700,18.2430166015625,-0.003054326167330146,0,0.0012217304902151227
1767621263635137800,18.2831376953125,0.0012217304902151227,0.0006108652451075613,0
1767621263675267000,18.32326708984375,0.0012217304902151227,-0.0024434609804302454,-0.001832595793530345
1767621263715388700,18.363388671875,-0.0006108652451075613,0.0024434609804302454,-0.0006108652451075613
1767621263755510500,18.403510498046874,-0.0012217304902151227,0.001832595793530345,0.0012217304902151227
1767621263795631600,18.443631591796876,-0.0006108652451075613,-0.0006108652451075613,0.0006108652451075613
1767621263835758600,18.483758544921876,0.001832595793530345,0,0
1767621263855856000,18.503856201171875,0,0,-0.001832595793530345
1767621263875873500,18.52387353515625,-0.0006108652451075613,0,0.0006108652451075613
1767621263915992000,18.563991943359376,-0.0012217304902151227,-0.0006108652451075613,0
1767621263956114400,18.604114501953124,0,-0.0024434609804302454,-0.0024434609804302454
1767621263996233000,18.64423291015625,0.0012217304902151227,-0.0012217304902151227,0
1767621264036349000,18.684348876953123,0.0006108652451075613,-0.00366519158706069,-0.0024434609804302454
1767621264076460000,18.7244599609375,-0.0006108652451075613,0,-0.0006108652451075613
1767621264116593000,18.764593017578125,-0.0012217304902151227,-0.0006108652451075613,-0.0024434609804302454
1767621264156710000,18.8047099609375,-0.004886921960860491,-0.0012217304902151227,0
1767621264176813800,18.824813720703126,0.0006108652451075613,-0.0012217304902151227,0
1767621264196830700,18.844830810546874,-0.001832595793530345,-0.0006108652451075613,0.0006108652451075613
1767621264236949200,18.88494921875,0.003054326167330146,-0.0024434609804302454,-0.0006108652451075613
1767621264277058000,18.92505810546875,-0.0012217304902151227,-0.001832595793530345,0
1767621264317168000,18.965168212890624,0,0.0006108652451075613,0.0012217304902151227
1767621264357269200,19.005269287109375,0.0006108652451075613,-0.001832595793530345,0.0006108652451075613
1767621264397386800,19.04538671875,-0.0006108652451075613,-0.0024434609804302454,0.003054326167330146
1767621264437514800,19.0855146484375,0,0.0012217304902151227,-0.001832595793530345
1767621264477635300,19.12563525390625,-0.0012217304902151227,-0.001832595793530345,0.0006108652451075613
1767621264517748500,19.16574853515625,0.0006108652451075613,0.001832595793530345,0.0024434609804302454
1767621264557865000,19.205864990234375,-0.00366519158706069,0.0006108652451075613,0.0012217304902151227
1767621264597966600,19.245966552734377,-0.001832595793530345,-0.0006108652451075613,0.001832595793530345
1767621264638086100,19.286086181640623,0,-0.0006108652451075613,0.0012217304902151227
1767621264678203100,19.326203125,0.0012217304902151227,-0.0006108652451075613,0.0006108652451075613
1767621264718320400,19.3663203125,0,0,0
1767621264758441200,19.406441162109374,0.0006108652451075613,-0.0012217304902151227,-0.0006108652451075613
1767621264798557700,19.4465576171875,-0.001832595793530345,0.0012217304902151227,-0.0012217304902151227
1767621264838664000,19.486663818359375,0,0,-0.0012217304902151227
1767621264878782200,19.5267822265625,0.0006108652451075613,-0.0006108652451075613,-0.0012217304902151227
1767621264918903600,19.566903564453124,-0.0006108652451075613,-0.0012217304902151227,-0.0006108652451075613
1767621264959029500,19.607029541015624,-0.0006108652451075613,0.0024434609804302454,-0.001832595793530345
1767621264979133000,19.6271328125,-0.0024434609804302454,-0.0006108652451075613,0.0006108652451075613
1767621264999151400,19.6471513671875,-0.0012217304902151227,-0.0012217304902151227,-0.0012217304902151227
1767621265039267000,19.68726708984375,0,-0.0006108652451075613,-0.0006108652451075613
1767621265079375600,19.727375732421876,0,0.0012217304902151227,0.0006108652451075613
1767621265119486700,19.76748681640625,-0.0012217304902151227,-0.0006108652451075613,-0.001832595793530345
1767621265139587000,19.787587158203124,-0.0012217304902151227,0.0006108652451075613,0.001832595793530345
1767621265159590100,19.807590087890624,-0.0006108652451075613,0,-0.003054326167330146
1767621265179678500,19.827678466796876,0.0006108652451075613,-0.0012217304902151227,0.001832595793530345
1767621265199688200,19.847688232421874,-0.0024434609804302454,0.0006108652451075613,0
1767621265239794200,19.887794189453125,0.0012217304902151227,-0.00366519158706069,-0.0006108652451075613
1767621265279910100,19.92791015625,-0.0012217304902151227,-0.0006108652451075613,0.0012217304902151227
1767621265320020000,19.96802001953125,-0.001832595793530345,-0.0006108652451075613,0.0006108652451075613
1767621265360133400,20.00813330078125,0.0006108652451075613,0.0012217304902151227,0
1767621265380236800,20.02823681640625,0.0012217304902151227,-0.0006108652451075613,0.001832595793530345
1767621265400253200,20.048253173828126,0.0006108652451075613,0,-0.0024434609804302454
1767621265440364300,20.0883642578125,-0.0012217304902151227,-0.0006108652451075613,0.001832595793530345
1767621265480479700,20.128479736328124,0.0006108652451075613,-0.001832595793530345,-0.0006108652451075613
1767621265520589300,20.16858935546875,-0.0012217304902151227,0.0012217304902151227,0.0012217304902151227
1767621265560691000,20.20869091796875,0.001832595793530345,-0.0012217304902151227,0.0012217304902151227
1767621265600802800,20.248802734375,0.0012217304902151227,-0.0006108652451075613,-0.0012217304902151227
1767621265640921300,20.28892138671875,-0.0006108652451075613,0,0
1767621265681046000,20.3290458984375,-0.001832595793530345,-0.0012217304902151227,0.0006108652451075613
1767621265721166300,20.369166259765624,-0.0006108652451075613,-0.001832595793530345,0.0006108652451075613
1767621265761277700,20.409277587890625,-0.0024434609804302454,0.0006108652451075613,0.001832595793530345
1767621265801382400,20.44938232421875,-0.00366519158706069,-0.0012217304902151227,0.0012217304902151227
1767621265841494300,20.489494384765624,-0.001832595793530345,-0.0006108652451075613,0
1767621265881609200,20.529609130859374,0.001832595793530345,-0.0012217304902151227,-0.0012217304902151227
1767621265921728000,20.56972802734375,0.003054326167330146,-0.0012217304902151227,0
1767621265961842700,20.6098427734375,-0.0012217304902151227,0.0012217304902151227,0.0012217304902151227
1767621266001959200,20.649959228515623,-0.0024434609804302454,0,0.001832595793530345
1767621266042065200,20.690065185546874,-0.0012217304902151227,0.0006108652451075613,0.0006108652451075613
1767621266062162000,20.710161865234376,-0.0006108652451075613,0,0.0012217304902151227
1767621266082173400,20.73017333984375,0,-0.0006108652451075613,-0.0006108652451075613
1767621266122290400,20.77029052734375,-0.0006108652451075613,-0.0024434609804302454,0
1767621266142403600,20.790403564453126,0.0012217304902151227,-0.0006108652451075613,0.0006108652451075613
1767621266162385400,20.810385498046877,0.001832595793530345,0.0006108652451075613,0.0012217304902151227
1767621266202502700,20.850502685546875,0.0024434609804302454,-0.0006108652451075613,-0.0012217304902151227
1767621266242614800,20.89061474609375,0.001832595793530345,-0.0006108652451075613,-0.001832595793530345
1767621266282749700,20.930749755859374,-0.0006108652451075613,-0.0006108652451075613,0.0006108652451075613
1767621266322860000,20.970860107421874,-0.001832595793530345,-0.001832595793530345,-0.0024434609804302454
1767621266362980000,21.01097998046875,-0.0024434609804302454,-0.001832595793530345,0.0012217304902151227
1767621266403101000,21.051100830078123,-0.0006108652451075613,-0.001832595793530345,-0.0006108652451075613
1767621266443219200,21.09121923828125,0.0006108652451075613,-0.0006108652451075613,0
1767621266463317500,21.1113173828125,-0.003054326167330146,0.0012217304902151227,-0.0006108652451075613
1767621266483332600,21.13133251953125,0,-0.0012217304902151227,-0.001832595793530345
1767621266523437800,21.171437744140626,-0.0012217304902151227,0,0.001832595793530345
1767621266563555800,21.211555908203124,-0.0006108652451075613,0,0.0024434609804302454
1767621266583658500,21.231658447265627,0.0006108652451075613,-0.001832595793530345,-0.0006108652451075613
1767621266603678000,21.251677978515627,-0.0006108652451075613,0.0006108652451075613,0.0012217304902151227
1767621266643804000,21.291803955078127,0.0024434609804302454,0,0.0012217304902151227
1767621266683938000,21.33193798828125,-0.0006108652451075613,-0.0006108652451075613,-0.0012217304902151227
1767621266724060400,21.372060302734376,-0.003054326167330146,-0.0012217304902151227,-0.0012217304902151227
1767621266764173800,21.412173828125,-0.0024434609804302454,0,-0.0006108652451075613
1767621266804295400,21.45229541015625,0.001832595793530345,-0.0006108652451075613,0.001832595793530345
1767621266844424400,21.492424560546876,0,-0.003054326167330146,-0.00366519158706069
1767621266864530400,21.512530517578124,0.001832595793530345,-0.0012217304902151227,0
1767621266884559400,21.532559326171874,-0.0006108652451075613,-0.001832595793530345,0
1767621266924686600,21.5726865234375,-0.001832595793530345,-0.0006108652451075613,-0.0012217304902151227
1767621266964812300,21.612812255859374,0,-0.0006108652451075613,0
1767621267004923100,21.652923095703127,0,0.001832595793530345,0.001832595793530345
1767621267045035800,21.693035888671876,-0.0024434609804302454,0,0.0012217304902151227
1767621267065137700,21.7131376953125,-0.001832595793530345,0.0006108652451075613,-0.0006108652451075613
1767621267085154000,21.733154052734374,-0.003054326167330146,-0.0006108652451075613,0.001832595793530345
1767621267125275600,21.773275634765625,0,0.0006108652451075613,0.0006108652451075613
1767621267165392400,21.813392333984375,-0.003054326167330146,0.0006108652451075613,0.0006108652451075613
1767621267205526800,21.85352685546875,-0.0012217304902151227,0,-0.0024434609804302454
1767621267245649200,21.893649169921876,0.001832595793530345,-0.0012217304902151227,0
1767621267265753300,21.91375341796875,-0.0012217304902151227,0.0006108652451075613,-0.003054326167330146
1767621267285774000,21.933774169921875,-0.0012217304902151227,0,0.001832595793530345
1767621267325907000,21.973906982421877,-0.001832595793530345,-0.0006108652451075613,0
1767621267366025000,22.01402490234375,0.0012217304902151227,0.0012217304902151227,0.0006108652451075613
1767621267406156500,22.054156494140624,-0.0012217304902151227,0,0
1767621267446277000,22.094277099609375,0.0012217304902151227,0,-0.0006108652451075613
1767621267486391800,22.134391845703124,0.001832595793530345,-0.0006108652451075613,0.0024434609804302454
1767621267526516200,22.17451611328125,-0.0006108652451075613,0.0006108652451075613,0.00366519158706069
1767621267566640400,22.214640380859375,-0.001832595793530345,0.0012217304902151227,0.0012217304902151227
1767621267586740000,22.234739990234374,0.0006108652451075613,-0.001832595793530345,-0.0006108652451075613
1767621267606758100,22.254758056640625,0.0012217304902151227,-0.001832595793530345,-0.0006108652451075613
1767621267646871600,22.29487158203125,-0.0012217304902151227,0,0.003054326167330146
1767621267686978000,22.33497802734375,0.0006108652451075613,-0.0006108652451075613,0
1767621267727074600,22.375074462890623,-0.001832595793530345,-0.001832595793530345,-0.0024434609804302454
1767621267747174700,22.395174560546874,0.0012217304902151227,-0.00366519158706069,0.0012217304902151227
1767621267767194600,22.415194580078126,-0.0012217304902151227,0.0012217304902151227,0.00427605677396059
1767621267807315200,22.455315185546876,0,-0.0012217304902151227,-0.0006108652451075613
1767621267847434200,22.495434326171875,0.0006108652451075613,-0.001832595793530345,0.0012217304902151227
1767621267887548700,22.535548583984376,0.0012217304902151227,0,0.0012217304902151227
1767621267927659300,22.5756591796875,0.0006108652451075613,0.001832595793530345,0.0012217304902151227
1767621267967764200,22.61576416015625,0.001832595793530345,-0.0006108652451075613,0.0006108652451075613
1767621268007875000,22.655875,0.001832595793530345,0,0
1767621268047986700,22.695986572265625,0.0006108652451075613,0,-0.0006108652451075613
1767621268088098800,22.736098876953125,0.0012217304902151227,-0.0012217304902151227,0.0006108652451075613
1767621268128213200,22.776213134765626,0,0,0.0006108652451075613
1767621268168326400,22.816326416015624,-0.0012217304902151227,-0.0012217304902151227,0
1767621268208429800,22.856429931640626,0.0012217304902151227,-0.001832595793530345,0
1767621268228525000,22.876525146484376,-0.0006108652451075613,0.001832595793530345,0.001832595793530345
1767621268248539000,22.896538818359375,0,-0.0006108652451075613,0
1767621268288656000,22.93665576171875,0,-0.0012217304902151227,0.0012217304902151227
1767621268328773000,22.976773193359374,0,-0.0024434609804302454,0.0006108652451075613
1767621268368886300,23.01688623046875,-0.0006108652451075613,0.0012217304902151227,0.001832595793530345
1767621268409005000,23.057005126953126,0.0012217304902151227,-0.00366519158706069,-0.003054326167330146
1767621268449182500,23.097182373046873,-0.0024434609804302454,-0.0012217304902151227,0.0006108652451075613
1767621268489299700,23.1372998046875,0.001832595793530345,-0.0012217304902151227,-0.0012217304902151227
1767621268529420000,23.177419921875,-0.00366519158706069,0.0012217304902151227,-0.0012217304902151227
1767621268569548300,23.21754833984375,0.001832595793530345,0,-0.001832595793530345
1767621268609677000,23.257677001953127,-0.00427605677396059,-0.0012217304902151227,-0.003054326167330146
1767621268649810400,23.297810546875,0.003054326167330146,0,-0.0024434609804302454
1767621268689929500,23.337929443359375,-0.004886921960860491,-0.0006108652451075613,0.0012217304902151227
1767621268730051600,23.378051513671874,0,-0.0006108652451075613,0.001832595793530345
1767621268770179800,23.418179931640626,-0.004886921960860491,0.003054326167330146,0.0024434609804302454
1767621268810300000,23.4582998046875,0,0,0.0012217304902151227
1767621268850413800,23.498413818359374,-0.00427605677396059,-0.0012217304902151227,0.001832595793530345
1767621268890533000,23.538533203125,-0.0006108652451075613,-0.0006108652451075613,0
1767621268930680600,23.5786806640625,0,-0.0006108652451075613,-0.0006108652451075613
1767621268970797300,23.61879736328125,0,0,0
1767621268990900500,23.638900390625,0.0006108652451075613,-0.0006108652451075613,0.0012217304902151227
1767621269010921200,23.658921142578127,-0.001832595793530345,0.0006108652451075613,-0.0012217304902151227
1767621269051051000,23.699051025390624,0.0024434609804302454,0.0006108652451075613,0
1767621269091172900,23.7391728515625,0.0012217304902151227,0,0
1767621269131296800,23.779296875,-0.003054326167330146,-0.0006108652451075613,0.0006108652451075613
1767621269171438800,23.81943896484375,0.0006108652451075613,0,0.0006108652451075613
1767621269211552300,23.85955224609375,-0.001832595793530345,0.0006108652451075613,0.0006108652451075613
1767621269251666000,23.899666015625,0.0006108652451075613,-0.0006108652451075613,-0.0012217304902151227
1767621269291779300,23.939779296875,-0.0024434609804302454,-0.0024434609804302454,-0.0024434609804302454
1767621269331889700,23.9798896484375,0.001832595793530345,0,0.0012217304902151227
1767621269351992000,23.999991943359376,-0.003054326167330146,-0.001832595793530345,0.0012217304902151227
1767621269372010500,24.020010498046876,0,-0.001832595793530345,-0.0012217304902151227
1767621269412118300,24.0601181640625,-0.001832595793530345,-0.0006108652451075613,-0.0006108652451075613
1767621269452227300,24.100227294921876,0,0,0.0006108652451075613
1767621269492334300,24.140334228515623,0.0006108652451075613,0.0006108652451075613,0.001832595793530345
1767621269532436200,24.180436279296874,-0.0012217304902151227,-0.001832595793530345,-0.0012217304902151227
1767621269572544300,24.220544189453125,0.0012217304902151227,-0.0012217304902151227,-0.003054326167330146
1767621269592638700,24.240638671875,0.0012217304902151227,0.0012217304902151227,-0.0012217304902151227
1767621269612650200,24.260650146484377,-0.0012217304902151227,0,0.001832595793530345
1767621269652762600,24.3007626953125,-0.0006108652451075613,-0.0012217304902151227,-0.0012217304902151227
1767621269672862500,24.320862548828124,-0.0006108652451075613,-0.0006108652451075613,0.0006108652451075613
1767621269692879000,24.340879150390624,-0.0012217304902151227,-0.0006108652451075613,0
1767621269732991500,24.380991455078124,-0.0012217304902151227,0,0
1767621269773109000,24.42110888671875,-0.0024434609804302454,0.0006108652451075613,0
1767621269793208300,24.441208251953125,-0.0012217304902151227,0,-0.0006108652451075613
1767621269813222000,24.461221923828123,0.003054326167330146,0,0
1767621269853333200,24.501333251953124,-0.003054326167330146,0,-0.0012217304902151227
1767621269893437000,24.54143701171875,-0.0006108652451075613,-0.0006108652451075613,0.0012217304902151227
1767621269933546500,24.58154638671875,-0.0006108652451075613,0,0.0006108652451075613
1767621269973660000,24.621659912109376,-0.0012217304902151227,0.0006108652451075613,-0.0024434609804302454
1767621269993757700,24.6417578125,0,-0.0012217304902151227,-0.0006108652451075613
1767621270013771800,24.661771728515625,0.001832595793530345,0,-0.0024434609804302454
1767621270053877200,24.701877197265624,-0.0012217304902151227,-0.0012217304902151227,-0.0006108652451075613
1767621270093981400,24.7419814453125,-0.001832595793530345,0.0012217304902151227,0.0024434609804302454
1767621270134088200,24.782088134765626,-0.001832595793530345,0.0006108652451075613,0.0006108652451075613
1767621270174211600,24.822211669921874,-0.0024434609804302454,-0.0024434609804302454,0.0006108652451075613
1767621270214329000,24.8623291015625,0,0.0012217304902151227,0
1767621270234429000,24.882428955078126,0,0.0006108652451075613,-0.0012217304902151227
1767621270254455000,24.902455078125,0.0006108652451075613,0.001832595793530345,0.0024434609804302454
1767621270294577400,24.942577392578126,-0.001832595793530345,-0.0006108652451075613,0
1767621270334689300,24.982689208984375,0.0024434609804302454,-0.0024434609804302454,-0.0012217304902151227
1767621270374792000,25.0227919921875,0.0006108652451075613,-0.001832595793530345,0.0012217304902151227
1767621270414907400,25.062907470703124,0.0024434609804302454,0,0.0006108652451075613
1767621270455025200,25.103025146484374,-0.0012217304902151227,0,0.0024434609804302454
1767621270495152400,25.14315234375,0.0012217304902151227,0,0.0024434609804302454
1767621270535278600,25.183278564453126,-0.0012217304902151227,0.0006108652451075613,0.001832595793530345
1767621270575402200,25.22340234375,-0.0006108652451075613,0.0006108652451075613,0.0012217304902151227
1767621270615516400,25.263516357421874,-0.0006108652451075613,-0.0006108652451075613,-0.0012217304902151227
1767621270655637200,25.30363720703125,-0.0012217304902151227,0,0.0012217304902151227
1767621270675738000,25.323738037109376,-0.001832595793530345,0.003054326167330146,0.003054326167330146
1767621270695753200,25.343753173828127,0.0006108652451075613,-0.001832595793530345,-0.0024434609804302454
1767621270735869400,25.383869384765624,0.001832595793530345,-0.0012217304902151227,-0.0006108652451075613
1767621270775983000,25.423983154296874,-0.0024434609804302454,-0.0012217304902151227,-0.0006108652451075613
1767621270796079400,25.444079345703123,0.0012217304902151227,0.0012217304902151227,0.003054326167330146
1767621270816095500,25.464095458984374,0,-0.0012217304902151227,-0.0006108652451075613
1767621270856205600,25.50420556640625,0,-0.0012217304902151227,-0.0024434609804302454
1767621270896327400,25.544327392578126,0.0006108652451075613,-0.001832595793530345,0.0006108652451075613
1767621270936450000,25.584449951171877,-0.0006108652451075613,0,0.0006108652451075613
1767621270976574500,25.624574462890624,-0.0012217304902151227,-0.0006108652451075613,0.001832595793530345
1767621270996679000,25.644678955078124,-0.0012217304902151227,0,-0.0012217304902151227
1767621271016700200,25.6647001953125,0,0.0006108652451075613,0.0012217304902151227
1767621271056821000,25.704821044921875,-0.0006108652451075613,0,-0.0006108652451075613
1767621271096931600,25.744931640625,0.001832595793530345,0,0.0012217304902151227
1767621271137046300,25.78504638671875,-0.0006108652451075613,-0.0006108652451075613,0.0012217304902151227
1767621271177233700,25.825233642578127,-0.0006108652451075613,0.0012217304902151227,-0.001832595793530345
1767621271217355800,25.865355712890626,0.0006108652451075613,0.0006108652451075613,0.0006108652451075613
1767621271257476600,25.9054765625,-0.0006108652451075613,0,0.0024434609804302454
1767621271297597000,25.945596923828123,-0.0012217304902151227,0,-0.0006108652451075613
1767621271337710600,25.985710693359376,0.0006108652451075613,-0.0012217304902151227,0.0006108652451075613
1767621271377829600,26.02582958984375,0.0006108652451075613,0,0.0024434609804302454
1767621271397929700,26.0459296875,0,-0.0012217304902151227,-0.001832595793530345
1767621271417944300,26.0659443359375,-0.0012217304902151227,-0.001832595793530345,0.0006108652451075613
1767621271458057200,26.10605712890625,0.0012217304902151227,-0.001832595793530345,-0.0012217304902151227
1767621271498177800,26.146177734375,0.0006108652451075613,-0.0012217304902151227,0.0006108652451075613
1767621271538294500,26.18629443359375,-0.0024434609804302454,0.001832595793530345,0.0006108652451075613
1767621271578400000,26.22639990234375,-0.0012217304902151227,0,-0.001832595793530345
1767621271618519300,26.266519287109375,-0.0012217304902151227,-0.0024434609804302454,-0.0012217304902151227
1767621271658643500,26.3066435546875,-0.0006108652451075613,-0.001832595793530345,0.0006108652451075613
1767621271678745300,26.326745361328125,0.0006108652451075613,0.0012217304902151227,0.0024434609804302454
1767621271698770200,26.346770263671875,-0.0006108652451075613,0,-0.0012217304902151227
1767621271738897700,26.386897705078123,-0.0012217304902151227,0.0006108652451075613,0.0006108652451075613
1767621271779020500,26.4270205078125,-0.0024434609804302454,-0.001832595793530345,0.0012217304902151227
1767621271819143000,26.467142822265625,0.0006108652451075613,-0.0006108652451075613,-0.001832595793530345
1767621271859254800,26.5072548828125,0.0006108652451075613,-0.0006108652451075613,0
1767621271879354400,26.527354248046876,-0.003054326167330146,-0.001832595793530345,0
1767621271899371000,26.54737109375,0.0006108652451075613,0,-0.0006108652451075613
1767621271939491800,26.587491943359375,-0.001832595793530345,-0.001832595793530345,-0.0012217304902151227
1767621271979611100,26.627611083984377,-0.0024434609804302454,-0.0024434609804302454,0.001832595793530345
1767621272019714800,26.66771484375,0.0006108652451075613,0.0006108652451075613,0.0006108652451075613
1767621272059841300,26.70784130859375,0.001832595793530345,-0.0012217304902151227,0
1767621272099953700,26.74795361328125,0,-0.0006108652451075613,-0.001832595793530345
1767621272140066000,26.788066162109374,-0.001832595793530345,0.0006108652451075613,0.003054326167330146
1767621272180177700,26.828177734375,-0.0012217304902151227,0,0
1767621272220286700,26.86828662109375,-0.0006108652451075613,-0.0006108652451075613,0
1767621272260397000,26.90839697265625,-0.0012217304902151227,-0.0012217304902151227,-0.0006108652451075613
1767621272300505600,26.948505615234374,0.0012217304902151227,-0.001832595793530345,-0.0024434609804302454
1767621272340624600,26.988624755859377,0,0.0006108652451075613,0.0012217304902151227
1767621272360725200,27.008725341796875,0.0006108652451075613,-0.0006108652451075613,0.0012217304902151227
1767621272380742100,27.0287421875,0.0006108652451075613,0.0012217304902151227,0.0006108652451075613
1767621272420857900,27.06885791015625,0.001832595793530345,-0.0024434609804302454,-0.0024434609804302454
1767621272460975600,27.1089755859375,-0.0006108652451075613,-0.0006108652451075613,-0.0024434609804302454
1767621272501093000,27.149093017578124,0.0006108652451075613,-0.0006108652451075613,-0.0024434609804302454
1767621272541235000,27.18923486328125,0.0006108652451075613,0.0012217304902151227,-0.0012217304902151227
1767621272581344300,27.22934423828125,-0.0012217304902151227,-0.0006108652451075613,0
1767621272621449700,27.26944970703125,0.0012217304902151227,-0.0024434609804302454,-0.00366519158706069
1767621272641544700,27.289544677734376,0.0006108652451075613,-0.0006108652451075613,0
1767621272661559800,27.309559814453124,0.0006108652451075613,0,0
1767621272701665500,27.34966552734375,0.0012217304902151227,0,0
1767621272741773800,27.38977392578125,-0.0006108652451075613,0.0006108652451075613,-0.0006108652451075613
1767621272781901800,27.42990185546875,0,-0.0006108652451075613,0.0012217304902151227
1767621272822013200,27.47001318359375,-0.0006108652451075613,-0.0012217304902151227,0.0006108652451075613
1767621272862131200,27.510131103515626,0.0012217304902151227,0,0
1767621272902245000,27.5502451171875,0.0006108652451075613,0.0012217304902151227,-0.001832595793530345
1767621272942359300,27.590359375,-0.0006108652451075613,0,0.0012217304902151227
1767621272982468400,27.63046826171875,0.0006108652451075613,0,0
1767621273022572000,27.670572021484375,-0.0006108652451075613,-0.0012217304902151227,0.0006108652451075613
1767621273062681900,27.710681884765624,0.001832595793530345,0,0.0024434609804302454
1767621273082775800,27.73077587890625,-0.0012217304902151227,0.001832595793530345,0
1767621273102782000,27.750781982421874,0.0006108652451075613,0,-0.0012217304902151227
1767621273142884900,27.790884765625,0.001832595793530345,0.0006108652451075613,0.0012217304902151227
1767621273182994000,27.830993896484376,-0.0012217304902151227,-0.0012217304902151227,-0.0012217304902151227
1767621273223102500,27.8711025390625,-0.0006108652451075613,0.0006108652451075613,0.0006108652451075613
1767621273263211300,27.911211181640624,0.0024434609804302454,-0.0006108652451075613,0.0006108652451075613
1767621273303331300,27.951331298828126,-0.001832595793530345,0.0006108652451075613,0.0024434609804302454
1767621273343460900,27.9914609375,0,0,-0.0006108652451075613
1767621273363561500,28.0115615234375,-0.001832595793530345,-0.001832595793530345,0.0012217304902151227
1767621273383579000,28.031578857421874,0,-0.0006108652451075613,-0.0006108652451075613
1767621273423692500,28.071692626953126,-0.001832595793530345,-0.0006108652451075613,-0.0006108652451075613
1767621273463806500,28.111806396484376,0.0006108652451075613,0.0006108652451075613,0.0006108652451075613
1767621273503911400,28.151911376953127,-0.0006108652451075613,0,0.0012217304902151227
1767621273544024300,28.1920244140625,0.0006108652451075613,0.0006108652451075613,0.0006108652451075613
1767621273584145200,28.232145263671875,0.0006108652451075613,0,0.0006108652451075613
1767621273624262100,28.27226220703125,0.0006108652451075613,-0.001832595793530345,0.0006108652451075613
1767621273664383000,28.312383056640623,0.0012217304902151227,0,0
1767621273704498000,28.352497802734376,-0.001832595793530345,0.001832595793530345,0.0006108652451075613
1767621273744598800,28.392598876953127,-0.001832595793530345,-0.0006108652451075613,0.003054326167330146
1767621273784711000,28.4327109375,0.0006108652451075613,-0.0006108652451075613,0.0012217304902151227
1767621273824830500,28.47283056640625,0.0012217304902151227,-0.0006108652451075613,-0.0006108652451075613
1767621273864946400,28.512946533203124,0,0.001832595793530345,0.0012217304902151227
1767621273905063000,28.55306298828125,0.0024434609804302454,-0.0012217304902151227,0.0006108652451075613
1767621273945177000,28.593177001953126,-0.001832595793530345,0.0006108652451075613,0.001832595793530345
1767621273985321500,28.633321533203127,-0.0006108652451075613,-0.0012217304902151227,-0.0006108652451075613
1767621274025435600,28.673435546875,-0.0024434609804302454,-0.001832595793530345,-0.0024434609804302454
1767621274065560800,28.713560791015624,-0.0006108652451075613,0.0006108652451075613,0.001832595793530345
1767621274105679400,28.753679443359374,0,-0.0006108652451075613,0
1767621274145803800,28.7938037109375,-0.0006108652451075613,0.0006108652451075613,0
1767621274165910800,28.813910888671874,0,0.001832595793530345,0.0012217304902151227
1767621274185921800,28.833921875,-0.0006108652451075613,-0.0006108652451075613,0.003054326167330146
1767621274226089200,28.874089111328125,-0.0006108652451075613,-0.0012217304902151227,-0.0006108652451075613
1767621274266205400,28.914205322265627,-0.0012217304902151227,0.0006108652451075613,0.001832595793530345
1767621274306327000,28.9543271484375,0,0.001832595793530345,0
1767621274346456300,28.994456298828126,0,0.0012217304902151227,0
1767621274386581500,29.03458154296875,0.0024434609804302454,0.001832595793530345,0.0006108652451075613
1767621274426702300,29.074702392578125,-0.003054326167330146,0.003054326167330146,0.00366519158706069
1767621274466813400,29.1148134765625,-0.0006108652451075613,-0.0012217304902151227,0.0012217304902151227
1767621274506932000,29.154931884765624,-0.0006108652451075613,0.0006108652451075613,0.0006108652451075613
1767621274547061000,29.19506103515625,-0.0006108652451075613,-0.0012217304902151227,0.0006108652451075613
1767621274587188500,29.2351884765625,-0.0012217304902151227,-0.0012217304902151227,-0.001832595793530345
1767621274627312400,29.2753125,0,-0.0012217304902151227,0
1767621274647424500,29.295424560546873,0.0006108652451075613,-0.0006108652451075613,-0.0006108652451075613
1767621274667437800,29.315437744140624,0.0006108652451075613,0,-0.0012217304902151227
1767621274687531800,29.33553173828125,0.001832595793530345,-0.0012217304902151227,-0.00427605677396059
1767621274707550500,29.355550537109377,0,-0.0012217304902151227,0.001832595793530345
1767621274747669500,29.39566943359375,0.001832595793530345,0.0006108652451075613,0.0006108652451075613
1767621274787788300,29.435788330078125,0.001832595793530345,-0.0006108652451075613,-0.003054326167330146
1767621274827902500,29.47590234375,0,-0.001832595793530345,0.0006108652451075613
1767621274868021000,29.51602099609375,-0.0006108652451075613,-0.001832595793530345,0.0006108652451075613
1767621274908143000,29.55614306640625,-0.0012217304902151227,0.0006108652451075613,0
1767621274948253000,29.5962529296875,-0.0012217304902151227,0.0012217304902151227,-0.0006108652451075613
1767621274988369000,29.636368896484374,-0.003054326167330146,-0.001832595793530345,0
1767621275028487200,29.676487060546876,-0.0006108652451075613,-0.001832595793530345,0
1767621275068607500,29.716607421875,-0.001832595793530345,-0.0006108652451075613,0.0006108652451075613
1767621275108734200,29.756734130859375,0.0012217304902151227,0.0012217304902151227,0.0006108652451075613
1767621275148847600,29.79684765625,-0.0006108652451075613,-0.0024434609804302454,0.0006108652451075613
1767621275188988000,29.83698779296875,-0.0006108652451075613,-0.0024434609804302454,0.0006108652451075613
1767621275229105200,29.877105224609377,0.0006108652451075613,-0.001832595793530345,-0.0006108652451075613
1767621275269213200,29.917213134765625,0.0006108652451075613,-0.0006108652451075613,0.0012217304902151227
1767621275309321500,29.957321533203125,-0.001832595793530345,-0.0012217304902151227,-0.0012217304902151227
1767621275349437700,29.997437744140626,0.0012217304902151227,-0.0012217304902151227,-0.0006108652451075613
1767621275369538800,30.017538818359377,-0.0024434609804302454,-0.001832595793530345,0.0012217304902151227
1767621275389557500,30.0375576171875,0.0012217304902151227,-0.0012217304902151227,-0.0006108652451075613
1767621275429667000,30.0776669921875,-0.0024434609804302454,-0.0012217304902151227,-0.0006108652451075613
1767621275449770000,30.09777001953125,-0.0006108652451075613,-0.0006108652451075613,0
1767621275469791000,30.117791015625,-0.003054326167330146,-0.003054326167330146,-0.0006108652451075613
1767621275509913900,30.157913818359376,0.0012217304902151227,-0.0012217304902151227,-0.0006108652451075613
1767621275550033700,30.19803369140625,-0.0012217304902151227,-0.0012217304902151227,-0.0006108652451075613
1767621275590159400,30.238159423828126,-0.001832595793530345,0,-0.0006108652451075613
1767621275630286000,30.2782861328125,-0.0024434609804302454,0.0012217304902151227,0.0006108652451075613
1767621275670438400,30.3184384765625,-0.001832595793530345,-0.0006108652451075613,0.003054326167330146
1767621275710559200,30.358559326171875,-0.0012217304902151227,0,-0.0006108652451075613
1767621275750683100,30.39868310546875,-0.0012217304902151227,-0.001832595793530345,-0.0012217304902151227
1767621275790805000,30.438804931640625,0.0006108652451075613,0,-0.0012217304902151227
1767621275830928000,30.478927978515625,0,0,-0.0012217304902151227
1767621275871048400,30.51904833984375,-0.0012217304902151227,0.0012217304902151227,0.001832595793530345
1767621275911157800,30.55915771484375,0.0006108652451075613,0,-0.0012217304902151227
1767621275951271700,30.599271728515625,0,0,0
1767621275991395300,30.639395263671876,-0.0006108652451075613,-0.0006108652451075613,0.0012217304902151227
1767621276011495000,30.659494873046874,-0.00366519158706069,0.0006108652451075613,0.0006108652451075613
1767621276031516200,30.67951611328125,-0.0006108652451075613,-0.0006108652451075613,0.001832595793530345
1767621276051620600,30.69962060546875,-0.0012217304902151227,0,0
1767621276071640800,30.719640869140626,0.0006108652451075613,-0.001832595793530345,-0.0012217304902151227
1767621276111758800,30.7597587890625,0.0006108652451075613,-0.0024434609804302454,-0.0012217304902151227
1767621276151877000,30.799877197265626,-0.001832595793530345,-0.001832595793530345,0
1767621276192000300,30.840000244140626,0.0012217304902151227,0.0006108652451075613,0
1767621276212104200,30.860104248046873,0.0012217304902151227,0,-0.0012217304902151227
1767621276232125400,30.88012548828125,-0.001832595793530345,0.0006108652451075613,-0.0024434609804302454
1767621276252228400,30.900228271484377,-0.001832595793530345,-0.001832595793530345,-0.0012217304902151227
1767621276272253700,30.920253662109374,-0.0006108652451075613,-0.0006108652451075613,-0.0012217304902151227
1767621276312382500,30.960382568359375,0.0012217304902151227,-0.001832595793530345,0.001832595793530345
1767621276352491800,31.00049169921875,0.001832595793530345,-0.0006108652451075613,0
1767621276392628500,31.04062841796875,0.0012217304902151227,-0.001832595793530345,-0.0006108652451075613
1767621276432751600,31.080751708984376,0.0012217304902151227,-0.0012217304902151227,0
1767621276472866800,31.12086669921875,-0.001832595793530345,-0.0012217304902151227,0.00366519158706069
1767621276492968700,31.14096875,0.0012217304902151227,0.0006108652451075613,0
1767621276512988200,31.16098828125,-0.0006108652451075613,-0.0012217304902151227,0
1767621276553111800,31.20111181640625,-0.0006108652451075613,0.0006108652451075613,0
1767621276593226000,31.24122607421875,0.003054326167330146,0.0006108652451075613,0
1767621276633333800,31.281333740234373,0.0012217304902151227,-0.0006108652451075613,0
1767621276673448700,31.32144873046875,0,-0.0012217304902151227,-0.0012217304902151227
1767621276713574700,31.36157470703125,0.0006108652451075613,0.0006108652451075613,-0.0006108652451075613
1767621276753690600,31.401690673828124,-0.0006108652451075613,-0.001832595793530345,0.0012217304902151227
1767621276773790700,31.421790771484375,-0.0012217304902151227,0.0006108652451075613,0.0024434609804302454
1767621276793806300,31.441806396484374,-0.001832595793530345,0.0024434609804302454,0.003054326167330146
1767621276833919500,31.48191943359375,0.0006108652451075613,0,0.0006108652451075613
1767621276874031400,31.52203125,0.0006108652451075613,0,0
1767621276914151400,31.5621513671875,0,0,0.001832595793530345
1767621276954263000,31.602262939453126,-0.0012217304902151227,-0.001832595793530345,0.0006108652451075613
1767621276974359600,31.622359619140624,0.0006108652451075613,-0.0012217304902151227,0.0012217304902151227
1767621276994381000,31.642381103515625,0,-0.0012217304902151227,0.0006108652451075613
1767621277034508500,31.682508544921873,0.0012217304902151227,0.0006108652451075613,0.0006108652451075613
1767621277074623200,31.722623291015626,0,-0.0012217304902151227,-0.0006108652451075613
1767621277094714400,31.74271435546875,0.001832595793530345,0.001832595793530345,-0.0006108652451075613
1767621277114731500,31.7627314453125,0,-0.0006108652451075613,0.0006108652451075613
1767621277154839800,31.80283984375,-0.0024434609804302454,0.0006108652451075613,0.00366519158706069
1767621277194952400,31.842952392578123,0.0006108652451075613,0.0012217304902151227,0.001832595793530345
1767621277215050000,31.863050048828125,0.0012217304902151227,0,0.0006108652451075613
1767621277235070200,31.8830703125,0,-0.0006108652451075613,0.0012217304902151227
1767621277255169500,31.90316943359375,0,0.001832595793530345,0.0012217304902151227
1767621277275187000,31.92318701171875,-0.0006108652451075613,0,-0.0006108652451075613
1767621277295286300,31.943286376953125,-0.0024434609804302454,-0.0012217304902151227,0.0006108652451075613
1767621277315304000,31.963303955078125,0.0006108652451075613,-0.0006108652451075613,0.0012217304902151227
1767621277355410400,32.00341040039063,0.0012217304902151227,-0.0006108652451075613,-0.0012217304902151227
1767621277395527200,32.04352709960938,-0.001832595793530345,0.0012217304902151227,0.0012217304902151227
1767621277435638800,32.083638671875,-0.001832595793530345,-0.0024434609804302454,0.0012217304902151227
1767621277475750000,32.12375,-0.0012217304902151227,-0.0012217304902151227,-0.0012217304902151227
1767621277515869000,32.163868896484374,0.0006108652451075613,-0.0006108652451075613,0.0006108652451075613
1767621277555980500,32.20398046875,-0.0006108652451075613,-0.0006108652451075613,0.0006108652451075613
1767621277596082200,32.244082275390625,-0.0012217304902151227,0.0012217304902151227,0.0012217304902151227
1767621277636199700,32.28419970703125,-0.001832595793530345,-0.0006108652451075613,0.0006108652451075613
1767621277656307700,32.3043076171875,-0.003054326167330146,0.001832595793530345,0.001832595793530345
1767621277676320000,32.32432006835938,-0.0006108652451075613,-0.0006108652451075613,0
1767621277716437800,32.36443774414062,0,-0.0006108652451075613,-0.001832595793530345
1767621277756555500,32.40455541992188,-0.0006108652451075613,0,0.0012217304902151227
1767621277796668400,32.44466845703125,0,-0.0012217304902151227,-0.0006108652451075613
1767621277836778800,32.48477880859375,-0.0006108652451075613,0,0.001832595793530345
1767621277876896800,32.52489672851563,0.0012217304902151227,0.0006108652451075613,0.0012217304902151227
1767621277917018000,32.56501806640625,-0.001832595793530345,0.0012217304902151227,0.001832595793530345
1767621277957136400,32.605136474609374,-0.0012217304902151227,-0.0006108652451075613,0
1767621277997261600,32.64526147460938,-0.0024434609804302454,0,0.0012217304902151227
1767621278037378000,32.6853779296875,-0.0012217304902151227,0.0006108652451075613,-0.0006108652451075613
1767621278077491700,32.72549169921875,-0.0012217304902151227,0.0006108652451075613,0.001832595793530345
1767621278117614300,32.7656142578125,0.0006108652451075613,-0.0006108652451075613,-0.0006108652451075613
1767621278157732600,32.80573266601562,0.0006108652451075613,-0.0006108652451075613,0.0006108652451075613
1767621278177846000,32.82584594726563,-0.0006108652451075613,-0.0006108652451075613,0.0012217304902151227
1767621278197832000,32.84583203125,0,0.001832595793530345,0.0012217304902151227
1767621278237950000,32.885949951171874,-0.0006108652451075613,0.0006108652451075613,-0.0006108652451075613
1767621278278062600,32.9260625,-0.0012217304902151227,0.0006108652451075613,0.003054326167330146
1767621278318169000,32.966169189453126,-0.001832595793530345,-0.0006108652451075613,0.003054326167330146
1767621278338269200,32.98626928710937,-0.0012217304902151227,0,-0.0006108652451075613
1767621278358287600,33.00628759765625,0.0006108652451075613,0.0006108652451075613,-0.0012217304902151227
1767621278398400800,33.04640087890625,-0.0006108652451075613,-0.0006108652451075613,-0.0012217304902151227
1767621278438511400,33.086511474609374,-0.001832595793530345,0.0006108652451075613,0.003054326167330146
1767621278478632400,33.126632568359376,0.0006108652451075613,-0.0006108652451075613,0.0006108652451075613
1767621278518726700,33.1667265625,0.0006108652451075613,-0.001832595793530345,-0.0006108652451075613
1767621278558852000,33.20685205078125,0,-0.0006108652451075613,-0.0006108652451075613
1767621278598958800,33.246958740234376,-0.0006108652451075613,-0.0012217304902151227,0.0012217304902151227
1767621278639068400,33.287068359375,0.0012217304902151227,-0.0006108652451075613,-0.0024434609804302454
1767621278679179800,33.3271796875,-0.001832595793530345,-0.0006108652451075613,-0.0012217304902151227
1767621278699278600,33.34727856445313,0.0012217304902151227,0.0012217304902151227,-0.0012217304902151227
1767621278719289000,33.3672890625,0.001832595793530345,0,0.003054326167330146
1767621278759388000,33.40738793945312,0.001832595793530345,-0.0006108652451075613,0
1767621278799525000,33.447525146484374,0,0,0.0012217304902151227
1767621278839629000,33.487629150390624,-0.001832595793530345,-0.0006108652451075613,0.0012217304902151227
1767621278879736800,33.52773681640625,-0.0012217304902151227,-0.0012217304902151227,0.003054326167330146
1767621278899826000,33.54782592773437,-0.0006108652451075613,0.0006108652451075613,0.0006108652451075613
1767621278919842300,33.56784228515625,0.0006108652451075613,-0.0006108652451075613,0.0006108652451075613
1767621278939936800,33.58793676757813,0,-0.0024434609804302454,-0.0024434609804302454
1767621278959947300,33.607947265625,-0.0012217304902151227,0,0.0006108652451075613
1767621279000058000,33.64805810546875,-0.001832595793530345,0,0.0024434609804302454
1767621279040152000,33.688152099609376,0.0006108652451075613,0,-0.0012217304902151227
1767621279080257500,33.728257568359375,-0.0012217304902151227,-0.0024434609804302454,-0.0024434609804302454
1767621279120370200,33.7683701171875,0.0006108652451075613,0.0006108652451075613,-0.0006108652451075613
1767621279140467000,33.78846704101562,0,0.0012217304902151227,0.0012217304902151227
1767621279160486000,33.80848583984375,0,-0.001832595793530345,-0.001832595793530345
1767621279200602400,33.848602294921875,0.001832595793530345,-0.0006108652451075613,-0.0006108652451075613
1767621279240714500,33.88871459960937,0.0012217304902151227,-0.0006108652451075613,-0.0006108652451075613
1767621279280825000,33.9288251953125,-0.0012217304902151227,0.0012217304902151227,0.0006108652451075613
1767621279300924700,33.94892456054688,-0.0006108652451075613,-0.0006108652451075613,-0.001832595793530345
1767621279320939500,33.968939453125,0.003054326167330146,-0.0012217304902151227,-0.001832595793530345
1767621279341038600,33.98903857421875,0,-0.0012217304902151227,-0.0006108652451075613
1767621279361055700,34.0090556640625,0.0012217304902151227,-0.0006108652451075613,-0.0006108652451075613
1767621279401177000,34.049177001953126,-0.0006108652451075613,-0.001832595793530345,-0.0006108652451075613
1767621279441294300,34.08929443359375,0.001832595793530345,0.0006108652451075613,-0.0006108652451075613
1767621279481420500,34.12942065429687,0.0024434609804302454,-0.0006108652451075613,0
1767621279521529300,34.169529296875,0.0006108652451075613,-0.003054326167330146,-0.001832595793530345
1767621279561642000,34.20964208984375,-0.0012217304902151227,0,0.0012217304902151227
1767621279601745200,34.2497451171875,0,0,0.0012217304902151227
1767621279641853200,34.289853271484375,-0.0006108652451075613,-0.001832595793530345,0.0012217304902151227
1767621279681970700,34.329970703125,0.0006108652451075613,0.0006108652451075613,0.001832595793530345
1767621279702070300,34.3500703125,0,-0.0006108652451075613,-0.0024434609804302454
1767621279722087700,34.37008764648437,-0.0024434609804302454,-0.0012217304902151227,0.0024434609804302454
1767621279762229800,34.41022973632813,0.0006108652451075613,-0.0006108652451075613,0.0024434609804302454
1767621279802342400,34.45034228515625,0.001832595793530345,-0.0006108652451075613,-0.0006108652451075613
1767621279842460000,34.4904599609375,-0.0024434609804302454,-0.0012217304902151227,0
1767621279882583300,34.530583251953125,-0.001832595793530345,0.0012217304902151227,-0.0006108652451075613
1767621279922703000,34.570703125,-0.00366519158706069,0,0.0012217304902151227
1767621279962823000,34.61082299804688,0.0006108652451075613,0.0012217304902151227,0.003054326167330146
1767621280002927600,34.650927734375,0,0,0.0024434609804302454
1767621280043034400,34.69103442382813,0.0006108652451075613,-0.0006108652451075613,0.0024434609804302454
1767621280083154000,34.73115380859375,0.0006108652451075613,0,0.0024434609804302454
1767621280123270700,34.771270751953125,-0.0006108652451075613,0.0006108652451075613,0
1767621280163379500,34.81137939453125,0,-0.0006108652451075613,0.0012217304902151227
1767621280203488300,34.85148828125,-0.0012217304902151227,-0.003054326167330146,0.0012217304902151227
1767621280243584800,34.89158471679688,0,-0.001832595793530345,0.0006108652451075613
1767621280283693000,34.931693115234374,0.0006108652451075613,-0.0006108652451075613,-0.0006108652451075613
1767621280323801000,34.971801025390626,-0.0012217304902151227,0.0006108652451075613,0
1767621280363913500,35.01191357421875,-0.0006108652451075613,-0.0006108652451075613,0.0006108652451075613
1767621280404040200,35.05204028320313,-0.0012217304902151227,-0.0012217304902151227,-0.0012217304902151227
1767621280444154400,35.092154296875,0,-0.0012217304902151227,0
1767621280464244200,35.112244140625,-0.001832595793530345,0.0012217304902151227,-0.0012217304902151227
1767621280484262700,35.1322626953125,-0.001832595793530345,-0.0012217304902151227,-0.001832595793530345
1767621280524374800,35.17237475585937,-0.00366519158706069,0,0.0006108652451075613
1767621280564487400,35.2124873046875,0,-0.001832595793530345,0.0006108652451075613
1767621280604602000,35.25260205078125,-0.0012217304902151227,0,0.0006108652451075613
1767621280624702000,35.27270190429687,0.0006108652451075613,-0.0012217304902151227,0.0006108652451075613
1767621280644723000,35.29272290039062,0,-0.0006108652451075613,-0.0006108652451075613
1767621280684828000,35.33282788085938,0.0006108652451075613,0.0006108652451075613,0
1767621280724956700,35.37295678710937,0.0012217304902151227,-0.0012217304902151227,-0.0012217304902151227
1767621280765063200,35.41306323242188,0.001832595793530345,-0.0006108652451075613,0
1767621280805168400,35.45316845703125,0.001832595793530345,0.0012217304902151227,0.001832595793530345
1767621280845280500,35.49328051757813,0,0.0006108652451075613,-0.0012217304902151227
1767621280885390800,35.533390869140625,-0.0024434609804302454,0,0.0006108652451075613
1767621280925497600,35.57349755859375,-0.004886921960860491,0.0006108652451075613,-0.0012217304902151227
1767621280965602000,35.61360205078125,-0.001832595793530345,0,0.0012217304902151227
1767621281005723600,35.6537236328125,-0.0024434609804302454,0.0006108652451075613,0.001832595793530345
1767621281045843000,35.693843017578125,0.0006108652451075613,-0.001832595793530345,0.0006108652451075613
1767621281085957400,35.73395727539062,-0.0006108652451075613,0,0.0024434609804302454
1767621281106057200,35.75405712890625,0.0012217304902151227,0,0
1767621281126072000,35.77407202148437,0,0.0006108652451075613,0.0006108652451075613
1767621281146165200,35.79416528320313,-0.0012217304902151227,0.0006108652451075613,0
1767621281166173700,35.81417358398438,0,-0.0006108652451075613,0.0006108652451075613
1767621281206266600,35.8542666015625,0.0012217304902151227,0.0006108652451075613,0.0006108652451075613
1767621281226360300,35.8743603515625,0.001832595793530345,0,0
1767621281246374700,35.894374755859374,-0.0012217304902151227,0.0012217304902151227,0.0006108652451075613
1767621281286488000,35.934488037109375,0.0006108652451075613,0,-0.0012217304902151227
1767621281326600000,35.97459985351563,-0.0024434609804302454,0.0006108652451075613,0.0012217304902151227
1767621281366707200,36.01470727539063,-0.0006108652451075613,0,0
1767621281406811600,36.05481176757812,0.0006108652451075613,0,0.001832595793530345
1767621281446910000,36.09490991210937,0,0,0.0012217304902151227
1767621281487010300,36.13501025390625,0,0.0012217304902151227,0.001832595793530345
1767621281527119400,36.17511938476562,0.0012217304902151227,0.001832595793530345,0.0024434609804302454
1767621281567234000,36.21523413085937,-0.001832595793530345,0.0012217304902151227,0.0024434609804302454
1767621281607347000,36.25534692382813,-0.0012217304902151227,0.0006108652451075613,0
1767621281647456300,36.29545629882813,-0.0012217304902151227,-0.0024434609804302454,0.0006108652451075613
1767621281687566300,36.33556640625,0.0006108652451075613,-0.0006108652451075613,-0.0006108652451075613
1767621281707665000,36.35566479492188,0,0.0006108652451075613,0.0012217304902151227
1767621281727684000,36.37568408203125,-0.001832595793530345,0.0012217304902151227,0.0012217304902151227
1767621281767783700,36.41578369140625,-0.0024434609804302454,0,0.0006108652451075613
1767621281807881000,36.455880859375,0.0012217304902151227,-0.001832595793530345,-0.0012217304902151227
1767621281827976200,36.47597607421875,0.0012217304902151227,0.0006108652451075613,0.0006108652451075613
1767621281847986400,36.495986328125,0,-0.0012217304902151227,0.0024434609804302454
1767621281888089600,36.536089599609376,0.0006108652451075613,-0.001832595793530345,-0.001832595793530345
1767621281928196400,36.5761962890625,-0.0006108652451075613,-0.0006108652451075613,0.0006108652451075613
1767621281968312800,36.61631274414062,-0.0006108652451075613,-0.0012217304902151227,0
1767621281988410600,36.63641064453125,0,0.0006108652451075613,0.0012217304902151227
1767621282008423700,36.65642358398438,0.0012217304902151227,-0.0006108652451075613,0.0006108652451075613
1767621282028521700,36.676521728515624,-0.003054326167330146,-0.0024434609804302454,0.0012217304902151227
1767621282048543500,36.69654345703125,-0.0006108652451075613,-0.0006108652451075613,0.0012217304902151227
1767621282088656100,36.73665625,-0.0006108652451075613,0,0.003054326167330146
1767621282128764700,36.7767646484375,-0.0024434609804302454,0.0006108652451075613,0.0012217304902151227
1767621282168949000,36.816948974609375,-0.0006108652451075613,-0.0006108652451075613,-0.0006108652451075613
1767621282189056000,36.837055908203126,0.0006108652451075613,-0.001832595793530345,-0.001832595793530345
1767621282209037600,36.85703759765625,-0.0012217304902151227,-0.003054326167330146,0
1767621282249154800,36.89715478515625,-0.0006108652451075613,-0.0006108652451075613,0.0012217304902151227
1767621282289261000,36.93726098632813,-0.0006108652451075613,0.0006108652451075613,0.00366519158706069
1767621282329366500,36.977366455078126,0.001832595793530345,-0.001832595793530345,0.0006108652451075613
1767621282369464600,37.017464599609376,0,-0.0012217304902151227,-0.0006108652451075613
1767621282409561900,37.05756176757812,-0.001832595793530345,0,0.0012217304902151227
1767621282429652200,37.07765234375,-0.0006108652451075613,0,-0.0012217304902151227
1767621282449662700,37.097662841796875,0.0006108652451075613,0,0.00366519158706069
1767621282469754600,37.117754638671876,0.001832595793530345,-0.0012217304902151227,-0.001832595793530345
1767621282489767700,37.137767578125,-0.0012217304902151227,0.001832595793530345,0.00427605677396059
1767621282529876000,37.1778759765625,-0.001832595793530345,-0.0006108652451075613,0
1767621282549973200,37.19797314453125,0,-0.0006108652451075613,0.0012217304902151227
1767621282569986800,37.21798681640625,0.0024434609804302454,0.0012217304902151227,0
1767621282610093000,37.258093017578126,-0.0006108652451075613,0.0006108652451075613,0.003054326167330146
1767621282650186000,37.29818603515625,-0.001832595793530345,-0.0012217304902151227,0.0024434609804302454
1767621282690290000,37.3382900390625,0.0012217304902151227,0.0006108652451075613,0.0012217304902151227
1767621282730393300,37.378393310546876,-0.0006108652451075613,-0.001832595793530345,0.0006108652451075613
1767621282770503000,37.4185029296875,-0.0024434609804302454,0.0012217304902151227,0.00366519158706069
1767621282810622700,37.458622802734375,0.0006108652451075613,-0.001832595793530345,-0.001832595793530345
1767621282830717200,37.47871728515625,0,-0.0012217304902151227,-0.0006108652451075613
1767621282850729200,37.49872924804688,0.0006108652451075613,0.0006108652451075613,0.0006108652451075613
1767621282890893800,37.53889379882813,0.001832595793530345,-0.0012217304902151227,-0.0012217304902151227
1767621282910990600,37.558990478515625,-0.0012217304902151227,-0.0012217304902151227,-0.0006108652451075613
1767621282931004400,37.57900439453125,-0.001832595793530345,-0.0012217304902151227,0
1767621282971110100,37.619110107421875,-0.001832595793530345,-0.0012217304902151227,0.0006108652451075613
1767621283011212300,37.65921240234375,-0.0006108652451075613,-0.0006108652451075613,0.001832595793530345
1767621283051318500,37.69931860351563,0.0012217304902151227,-0.0006108652451075613,0.0012217304902151227
1767621283091417900,37.73941796875,-0.0024434609804302454,-0.0012217304902151227,0.0006108652451075613
1767621283111503400,37.75950341796875,-0.0012217304902151227,0.0024434609804302454,0.0006108652451075613
1767621283131514400,37.779514404296876,0.0012217304902151227,-0.0012217304902151227,-0.0006108652451075613
1767621283171619300,37.81961938476562,0.0012217304902151227,0.0006108652451075613,0.001832595793530345
1767621283191714600,37.83971459960937,-0.003054326167330146,-0.0006108652451075613,0.0012217304902151227
1767621283211721200,37.85972119140625,-0.0006108652451075613,-0.0006108652451075613,0.0006108652451075613
1767621283251825200,37.8998251953125,-0.0012217304902151227,-0.0006108652451075613,0
1767621283271917800,37.91991772460938,-0.001832595793530345,0.0006108652451075613,-0.0012217304902151227
1767621283291929600,37.9399296875,0.001832595793530345,-0.0006108652451075613,0.0012217304902151227
1767621283332028700,37.98002856445312,-0.0012217304902151227,0,0.0006108652451075613
1767621283372125000,38.020125,-0.0024434609804302454,-0.0024434609804302454,0.0012217304902151227
1767621283392218000,38.04021801757813,0.0012217304902151227,0,-0.0012217304902151227
1767621283412231400,38.0602314453125,-0.001832595793530345,-0.0024434609804302454,-0.0006108652451075613
1767621283432330800,38.080330810546876,0.0012217304902151227,-0.0012217304902151227,-0.0006108652451075613
1767621283452345000,38.10034497070313,-0.0006108652451075613,0,-0.0006108652451075613
1767621283492460000,38.1404599609375,0.0024434609804302454,0,-0.003054326167330146
1767621283532570000,38.18057006835937,0.0006108652451075613,-0.0024434609804302454,0
1767621283572681700,38.220681640625,-0.0006108652451075613,0.0006108652451075613,0.0006108652451075613
1767621283612788200,38.26078833007813,0.0012217304902151227,-0.001832595793530345,-0.0024434609804302454
1767621283652896000,38.30089599609375,-0.0006108652451075613,-0.0012217304902151227,-0.0012217304902151227
1767621283693006600,38.34100659179688,-0.00366519158706069,-0.0012217304902151227,0.001832595793530345
1767621283713098000,38.361097900390625,-0.0012217304902151227,-0.0012217304902151227,0
1767621283733108500,38.3811083984375,-0.0006108652451075613,0,-0.0012217304902151227
1767621283753205000,38.401205078125,0.0012217304902151227,0.0012217304902151227,0.0024434609804302454
1767621283773217300,38.42121728515625,-0.0006108652451075613,-0.0012217304902151227,-0.001832595793530345
1767621283813325600,38.46132568359375,-0.0012217304902151227,0.0012217304902151227,0.0012217304902151227
1767621283853419000,38.5014189453125,0.001832595793530345,-0.001832595793530345,0.0006108652451075613
1767621283873508400,38.52150830078125,-0.0012217304902151227,-0.0006108652451075613,-0.0006108652451075613
1767621283893519600,38.54151953125,0,0.0006108652451075613,0.001832595793530345
1767621283913605600,38.561605712890625,-0.0012217304902151227,0.001832595793530345,0
1767621283933606700,38.581606689453125,0.0006108652451075613,0.0012217304902151227,0.0012217304902151227
1767621283953691100,38.601691162109375,-0.001832595793530345,0,0.0006108652451075613
1767621283973695500,38.621695556640624,-0.0006108652451075613,0.0012217304902151227,0.0012217304902151227
1767621284013793000,38.66179296875,-0.0006108652451075613,-0.001832595793530345,-0.0024434609804302454
1767621284053886200,38.70188623046875,0,0.0006108652451075613,0.0012217304902151227
1767621284093982500,38.741982421875,0.001832595793530345,0,0
1767621284134078000,38.782077880859376,-0.001832595793530345,0,0.0006108652451075613
1767621284154169000,38.802169189453124,-0.0006108652451075613,-0.0012217304902151227,-0.0006108652451075613
1767621284174179000,38.82217895507812,-0.001832595793530345,0.0006108652451075613,0.001832595793530345
1767621284214284300,38.8622841796875,-0.0024434609804302454,-0.0006108652451075613,-0.0006108652451075613
1767621284254390300,38.90239038085937,-0.00427605677396059,0.0006108652451075613,0.003054326167330146
1767621284294485000,38.942485107421874,0,0.003054326167330146,0.0012217304902151227
1767621284334573000,38.98257299804688,0,-0.001832595793530345,-0.0012217304902151227
1767621284374676200,39.02267626953125,-0.0012217304902151227,0,0
1767621284414784800,39.06278466796875,0.0006108652451075613,0,-0.001832595793530345
1767621284454888400,39.10288842773438,0.0012217304902151227,-0.0012217304902151227,-0.0006108652451075613
1767621284494996500,39.14299658203125,-0.003054326167330146,0,-0.0006108652451075613
1767621284535102700,39.183102783203125,-0.0006108652451075613,-0.0012217304902151227,0.0024434609804302454
1767621284575193000,39.22319311523437,0.0006108652451075613,0,-0.0006108652451075613
1767621284615289600,39.26328955078125,0.001832595793530345,0,0.001832595793530345
1767621284635381800,39.2833818359375,-0.004886921960860491,0.0012217304902151227,0.0006108652451075613
1767621284655392800,39.30339282226562,0,0.0012217304902151227,0.00427605677396059
1767621284675500500,39.32350048828125,0,0.0012217304902151227,0
1767621284695510800,39.3435107421875,-0.001832595793530345,-0.0012217304902151227,0.0006108652451075613
1767621284715608600,39.36360864257812,0.0012217304902151227,0.0012217304902151227,0.0024434609804302454
1767621284735620000,39.3836201171875,-0.0012217304902151227,0,0.0012217304902151227
1767621284755714300,39.40371435546875,-0.001832595793530345,0.0024434609804302454,0.0024434609804302454
1767621284775720200,39.42372021484375,0,0.0006108652451075613,-0.0006108652451075613
1767621284795801900,39.4438017578125,-0.0006108652451075613,0.0012217304902151227,0.001832595793530345
1767621284815808500,39.46380859375,0,-0.0012217304902151227,0.001832595793530345
1767621284855902700,39.50390283203125,0.0012217304902151227,-0.0012217304902151227,0.0012217304902151227
1767621284896001800,39.544001708984375,-0.0012217304902151227,0.0006108652451075613,0
1767621284916091000,39.5640908203125,-0.0006108652451075613,-0.0012217304902151227,0
1767621284936106000,39.58410595703125,-0.0012217304902151227,0.001832595793530345,0.0012217304902151227
1767621284976224000,39.62422412109375,-0.0006108652451075613,0.0006108652451075613,0.0012217304902151227
1767621285016320800,39.66432080078125,-0.0006108652451075613,-0.0006108652451075613,-0.0006108652451075613
1767621285036435500,39.684435546875,-0.0012217304902151227,-0.0012217304902151227,0
1767621285056440800,39.70444091796875,0,-0.0006108652451075613,0
1767621285096544300,39.74454418945312,0,-0.0006108652451075613,0.0006108652451075613
1767621285116642800,39.76464282226563,-0.0006108652451075613,-0.0006108652451075613,-0.0006108652451075613
1767621285136655000,39.78465502929687,0.001832595793530345,-0.001832595793530345,0.0012217304902151227
1767621285176757200,39.82475732421875,0,-0.0012217304902151227,0
1767621285216857600,39.864857666015624,0,-0.0012217304902151227,0.0012217304902151227
1767621285236952300,39.88495239257813,-0.001832595793530345,0,0.001832595793530345
1767621285256961500,39.90496142578125,0.0012217304902151227,0.0012217304902151227,0.001832595793530345
1767621285297064400,39.945064453125,-0.0012217304902151227,0,0.0012217304902151227
1767621285337182200,39.98518212890625,0.0006108652451075613,-0.0024434609804302454,-0.001832595793530345
1767621285357281000,40.00528100585937,-0.003054326167330146,0.0006108652451075613,0
1767621285377294000,40.02529418945313,-0.003054326167330146,0,0.0006108652451075613
1767621285397390000,40.04539013671875,0.001832595793530345,-0.0012217304902151227,0
1767621285417407700,40.06540771484375,-0.001832595793530345,-0.0012217304902151227,0.0006108652451075613
1767621285457525200,40.105525146484375,0,-0.0024434609804302454,-0.0012217304902151227
1767621285497633000,40.14563305664063,-0.0006108652451075613,-0.0006108652451075613,0.001832595793530345
1767621285517724400,40.165724365234375,0.0012217304902151227,-0.003054326167330146,-0.003054326167330146
1767621285537740000,40.185739990234374,-0.001832595793530345,-0.0012217304902151227,0.0024434609804302454
1767621285577848600,40.2258486328125,-0.0006108652451075613,0.0006108652451075613,0.0006108652451075613
1767621285617966600,40.265966552734376,0,-0.0006108652451075613,0.0006108652451075613
1767621285658086400,40.30608642578125,-0.001832595793530345,-0.0006108652451075613,-0.0006108652451075613
1767621285698201900,40.346201904296876,-0.0012217304902151227,-0.0012217304902151227,0.0012217304902151227
1767621285738304300,40.38630419921875,0.001832595793530345,0.001832595793530345,0
1767621285778405600,40.426405517578125,0.0006108652451075613,0.0012217304902151227,0.0012217304902151227
1767621285818509800,40.466509765625,0.0006108652451075613,-0.001832595793530345,-0.0006108652451075613
1767621285858612200,40.5066123046875,-0.0012217304902151227,0,0.001832595793530345
1767621285898729700,40.546729736328125,0,-0.0006108652451075613,-0.0006108652451075613
1767621285938845000,40.586844970703126,0,-0.003054326167330146,-0.0006108652451075613
1767621285958940200,40.606940185546875,0.0006108652451075613,-0.001832595793530345,-0.0006108652451075613
1767621285978951200,40.626951171875,0.0006108652451075613,0.0012217304902151227,0
1767621286019052000,40.667052001953124,0.0006108652451075613,0.001832595793530345,0.0024434609804302454
1767621286059171600,40.70717163085938,-0.0024434609804302454,-0.00366519158706069,-0.0012217304902151227
1767621286079264500,40.727264404296875,-0.001832595793530345,0.0006108652451075613,0.0024434609804302454
1767621286099274000,40.74727392578125,-0.001832595793530345,0.0006108652451075613,0.0012217304902151227
1767621286119367400,40.76736743164062,-0.0012217304902151227,-0.0006108652451075613,0.0012217304902151227
1767621286139379700,40.78737963867187,0.0006108652451075613,0.0006108652451075613,0.001832595793530345
1767621286159478300,40.80747827148438,0,-0.0006108652451075613,0.0012217304902151227
1767621286179494100,40.827494140625,-0.0012217304902151227,0.0006108652451075613,0.001832595793530345
1767621286199603700,40.847603759765626,-0.0006108652451075613,0.0012217304902151227,0.00366519158706069
1767621286219583700,40.86758374023437,-0.0012217304902151227,0,0.001832595793530345
1767621286259682600,40.9076826171875,0.0006108652451075613,-0.0006108652451075613,0
1767621286299781000,40.947781005859376,-0.0012217304902151227,0,0.00427605677396059
1767621286319876900,40.967876953125,0.0012217304902151227,0,-0.001832595793530345
1767621286339888600,40.987888671875,0.0006108652451075613,-0.0006108652451075613,0.0012217304902151227
1767621286379999000,41.0279990234375,0,0.0006108652451075613,0.0012217304902151227
1767621286400093000,41.048093017578125,-0.0006108652451075613,0.0006108652451075613,0.004886921960860491
1767621286420103000,41.06810302734375,0,-0.0006108652451075613,-0.0006108652451075613
1767621286460213200,41.10821313476563,0.0012217304902151227,-0.0012217304902151227,0.001832595793530345
1767621286500348200,41.14834814453125,0.0006108652451075613,0,-0.003054326167330146
1767621286540460500,41.18846044921875,-0.0006108652451075613,-0.0006108652451075613,-0.0024434609804302454
1767621286580556500,41.228556640625,0,0.0006108652451075613,0.001832595793530345
1767621286620659000,41.268658935546874,-0.0012217304902151227,0,-0.0012217304902151227
1767621286640752600,41.288752685546875,-0.001832595793530345,0.0006108652451075613,0.0012217304902151227
1767621286660764000,41.30876391601562,0.0012217304902151227,0,-0.0006108652451075613
1767621286700868000,41.3488681640625,-0.0012217304902151227,0,0.003054326167330146
1767621286720953300,41.36895336914063,0.0006108652451075613,-0.0006108652451075613,0.001832595793530345
1767621286740964600,41.38896459960937,0,-0.0006108652451075613,0.0006108652451075613
1767621286761056500,41.409056396484374,0,-0.0012217304902151227,-0.0006108652451075613
1767621286781065200,41.429065185546875,-0.001832595793530345,0,0.0024434609804302454
1767621286821172500,41.46917236328125,0,0.0006108652451075613,0.003054326167330146
1767621286861273000,41.50927319335938,-0.0012217304902151227,-0.0006108652451075613,0.0006108652451075613
1767621286901369600,41.54936962890625,0,-0.0012217304902151227,-0.0012217304902151227
1767621286941459700,41.589459716796874,-0.0006108652451075613,0,0.0006108652451075613
1767621286981549300,41.62954931640625,0.0012217304902151227,-0.001832595793530345,0
1767621287021649700,41.66964965820313,-0.003054326167330146,0.0006108652451075613,0.0012217304902151227
1767621287061748200,41.70974829101562,-0.001832595793530345,-0.0006108652451075613,0.0012217304902151227
1767621287101847800,41.74984790039063,0,-0.0006108652451075613,0.0012217304902151227
1767621287141955000,41.789955078125,0,0,0.0006108652451075613
1767621287182046000,41.8300458984375,-0.0012217304902151227,0.0006108652451075613,-0.001832595793530345
1767621287222163200,41.8701630859375,-0.0006108652451075613,-0.0006108652451075613,0.001832595793530345
1767621287242253600,41.89025366210937,0.0006108652451075613,-0.001832595793530345,-0.00427605677396059
1767621287262263300,41.91026318359375,-0.0006108652451075613,0,0
1767621287302370800,41.95037084960938,0,0.0006108652451075613,-0.0006108652451075613
1767621287342477300,41.990477294921874,-0.001832595793530345,0,-0.0012217304902151227
1767621287382583000,42.0305830078125,0.0006108652451075613,0.0006108652451075613,-0.0006108652451075613
1767621287422689300,42.070689208984376,0.001832595793530345,0.001832595793530345,-0.0006108652451075613
1767621287462796500,42.110796630859376,0.0006108652451075613,0.0012217304902151227,0.001832595793530345
1767621287502906400,42.15090625,0,-0.0012217304902151227,-0.0006108652451075613
1767621287543020500,42.1910205078125,0,0.0006108652451075613,0
1767621287583127000,42.231126953125,0.0006108652451075613,0.0006108652451075613,-0.001832595793530345
1767621287623233300,42.2712333984375,-0.0006108652451075613,-0.0012217304902151227,0
1767621287643327000,42.291326904296874,-0.0012217304902151227,-0.0012217304902151227,-0.003054326167330146
1767621287663341600,42.311341552734376,-0.0012217304902151227,0.0006108652451075613,-0.0012217304902151227
1767621287703473400,42.35147338867188,0.0006108652451075613,0,0.0012217304902151227
1767621287743577900,42.39157788085937,-0.0012217304902151227,0,0.003054326167330146
1767621287783692300,42.4316923828125,-0.0006108652451075613,-0.0012217304902151227,-0.001832595793530345
1767621287823802400,42.47180224609375,0,-0.0006108652451075613,-0.0006108652451075613
1767621287863910700,42.51191064453125,0.001832595793530345,-0.001832595793530345,-0.001832595793530345
1767621287884005400,42.53200537109375,-0.001832595793530345,-0.0024434609804302454,-0.0012217304902151227
1767621287904019000,42.55201904296875,-0.003054326167330146,-0.0006108652451075613,0
1767621287944117200,42.5921171875,-0.001832595793530345,0.001832595793530345,0.0012217304902151227
1767621287964212700,42.61221264648437,-0.0012217304902151227,-0.0012217304902151227,0.0006108652451075613
1767621287984227800,42.63222778320313,0.0012217304902151227,-0.0012217304902151227,0
1767621288004324900,42.65232495117188,-0.001832595793530345,-0.0012217304902151227,-0.0006108652451075613
1767621288024333800,42.67233374023437,-0.0024434609804302454,0,0.003054326167330146
1767621288044427300,42.69242724609375,0,-0.0006108652451075613,0
1767621288064443100,42.71244311523437,-0.0006108652451075613,0.001832595793530345,0.0012217304902151227
1767621288104547000,42.75254711914062,0,0,-0.0006108652451075613
1767621288124636400,42.77263647460938,-0.0024434609804302454,0.0012217304902151227,0.0012217304902151227
1767621288144643600,42.7926435546875,0.0012217304902151227,0,-0.0006108652451075613
1767621288184736800,42.83273681640625,-0.0006108652451075613,-0.0006108652451075613,-0.001832595793530345
1767621288224841500,42.87284155273438,-0.0012217304902151227,-0.0006108652451075613,0.0024434609804302454
1767621288264936700,42.912936767578124,-0.0012217304902151227,-0.0006108652451075613,0
1767621288285026300,42.9330263671875,-0.0012217304902151227,0.001832595793530345,0
1767621288305035500,42.953035400390625,0,0,0.0012217304902151227
1767621288345142500,42.993142578125,0.0012217304902151227,0,0.001832595793530345
1767621288385246200,43.03324609375,-0.001832595793530345,0.0006108652451075613,0
1767621288425338400,43.07333837890625,-0.0012217304902151227,-0.0006108652451075613,0.00427605677396059
1767621288445426200,43.09342626953125,0.0024434609804302454,-0.0012217304902151227,-0.001832595793530345
1767621288465435400,43.11343530273437,0.0006108652451075613,-0.0006108652451075613,0.0012217304902151227
1767621288485529900,43.13352978515625,-0.0006108652451075613,0.0006108652451075613,0
1767621288505538000,43.1535380859375,-0.0006108652451075613,0,0.0012217304902151227
1767621288545644300,43.19364428710937,-0.0006108652451075613,0.0006108652451075613,0.0006108652451075613
1767621288585749000,43.2337490234375,0.0006108652451075613,0.0012217304902151227,0.00366519158706069
1767621288625847600,43.27384765625,0.003054326167330146,-0.0006108652451075613,-0.0006108652451075613
1767621288665951200,43.313951171875,-0.001832595793530345,-0.0006108652451075613,0.0006108652451075613
1767621288706064400,43.354064453125,0,0.0006108652451075613,-0.001832595793530345
1767621288726158800,43.37415893554687,0.0024434609804302454,-0.001832595793530345,-0.001832595793530345
1767621288746171100,43.394171142578124,0.0012217304902151227,0.0012217304902151227,0.001832595793530345
1767621288766263300,43.41426318359375,-0.00366519158706069,0.001832595793530345,0.001832595793530345
1767621288786274800,43.43427490234375,0,-0.0012217304902151227,0.003054326167330146
1767621288826367700,43.47436767578125,0.001832595793530345,-0.0006108652451075613,0.001832595793530345
1767621288866460200,43.51446020507812,0,0,-0.0006108652451075613
1767621288906548500,43.55454858398438,0,0.0006108652451075613,0.0012217304902151227
1767621288946653700,43.59465380859375,-0.001832595793530345,0.0012217304902151227,0.003054326167330146
1767621288986759200,43.63475927734375,-0.0024434609804302454,-0.001832595793530345,-0.0012217304902151227
1767621289026855400,43.67485546875,-0.0024434609804302454,0,0.003054326167330146
1767621289046944500,43.69494458007812,0,-0.0024434609804302454,0
1767621289066955300,43.714955322265624,0.0024434609804302454,0,-0.0012217304902151227
1767621289107060500,43.755060546875,0,0,0
1767621289147154000,43.79515380859375,-0.001832595793530345,0,0.003054326167330146
1767621289187257900,43.8352578125,-0.0024434609804302454,0.0012217304902151227,0.0006108652451075613
1767621289207353900,43.85535375976563,0.0006108652451075613,-0.0006108652451075613,0.00366519158706069
