time,seconds_elapsed,z,y,x
1767621245480865500,0.128865478515625,0.03123950958251953,-0.0007835719734430313,0.0004453882575035095
1767621245500921000,0.148921142578125,0.028862953186035156,0.044228047132492065,-0.016077999025583267
1767621245541024500,0.1890244140625,0.01695728302001953,0.03235302120447159,0.01263793557882309
1767621245581138000,0.229137939453125,0.028833389282226562,-0.017194081097841263,0.017639411613345146
1767621245621252600,0.269252685546875,0.028928756713867188,0.028667215257883072,-0.022612515836954117
1767621245661370600,0.30937060546875,0.04090404510498047,-0.005571611225605011,0.011146649718284607
1767621245701493500,0.349493408203125,0.031248092651367188,-0.01816527359187603,0.022891946136951447
1767621245721555000,0.369554931640625,0.03600025177001953,0.012762384489178658,0.010828198865056038
1767621245741619000,0.389618896484375,0.026491165161132812,0.016542091965675354,-0.03846738487482071
1767621245781734100,0.429734130859375,0.03128242492675781,0.02321740984916687,-0.019054081290960312
1767621245821850000,0.46985009765625,0.03128623962402344,0.00167020782828331,0.0318254679441452
1767621245861960400,0.50996044921875,0.02889251708984375,0.044443707913160324,-0.02310660108923912
1767621245902069500,0.550069580078125,0.024114608764648438,-0.014725640416145325,-0.012561321258544922
1767621245942185200,0.590185302734375,0.026513099670410156,-0.018003815785050392,0.05216190963983536
1767621245982308000,0.63030810546875,0.028906822204589844,0.043699461966753006,-0.03433533012866974
1767621246022424800,0.6704248046875,0.04088306427001953,-0.023939214646816254,-0.012186478823423386
1767621246062539800,0.710539794921875,0.026521682739257812,0.003823511302471161,0.04517127573490143
1767621246102636300,0.75063623046875,0.03131389617919922,0.010384414345026016,0.00010319799184799194
1767621246142755000,0.790755126953125,0.0432891845703125,-0.014998134225606918,-0.033656682819128036
1767621246182876200,0.830876220703125,0.01935100555419922,-0.005834728479385376,0.043310776352882385
1767621246223001000,0.8710009765625,0.028931617736816406,0.002775955945253372,-0.016597099602222443
1767621246263123500,0.91112353515625,0.021753311157226562,-0.0026105716824531555,-0.032920513302087784
1767621246303240000,0.951239990234375,0.024152755737304688,0.03966160863637924,0.034522414207458496
1767621246343362300,0.9913623046875,0.03613090515136719,-0.05218087136745453,-0.005601655691862106
1767621246383493000,1.0314931640625,0.028955459594726562,0.011448007076978683,-0.012153543531894684
1767621246403552800,1.051552734375,0.026563644409179688,0.008695192635059357,0.007121093571186066
1767621246423624000,1.0716240234375,0.03135204315185547,-0.02726110629737377,0.038174331188201904
1767621246463749000,1.1117490234375,0.016988754272460938,-0.027852723374962807,0.004440389573574066
1767621246503867100,1.1518671875,0.028967857360839844,0.011468488723039627,-0.004635225981473923
1767621246543985400,1.1919853515625,0.021790504455566406,0.001066252589225769,0.0218984242528677
1767621246564045300,1.21204541015625,0.03615856170654297,-0.03032216615974903,0.022140366956591606
1767621246584110800,1.23211083984375,0.01940155029296875,-0.0355001725256443,0.005486905574798584
1767621246624230100,1.272230224609375,0.024194717407226562,0.0163719542324543,0.000991176813840866
1767621246664354800,1.312354736328125,0.02180957794189453,-0.02301536127924919,0.008774936199188232
1767621246704478000,1.35247802734375,0.0098419189453125,-0.02618308737874031,0.016013525426387787
1767621246744596500,1.392596435546875,0.03378486633300781,0.009481947869062424,-0.0032335929572582245
1767621246784713700,1.432713623046875,0.021821975708007812,-0.013387482613325119,-0.007902245968580246
1767621246824826400,1.472826416015625,0.01703643798828125,-0.02086535468697548,0.01865718886256218
1767621246864946400,1.512946533203125,0.014646530151367188,-0.004745747894048691,-0.007563229650259018
1767621246905074400,1.553074462890625,0.017047882080078125,-0.025101421400904655,0.006987232714891434
1767621246945185500,1.593185546875,0.01944446563720703,-0.006694331765174866,0.02344636060297489
1767621246985302500,1.633302490234375,0.017058372497558594,-0.007628057152032852,-0.01921280100941658
1767621247025416700,1.673416748046875,0.017066001892089844,-0.02014997974038124,0.01038319244980812
1767621247045471000,1.693470947265625,0.017068862915039062,-0.013231240212917328,0.024898430332541466
1767621247065532400,1.713532470703125,0.02185821533203125,-0.006347261369228363,0.036915622651576996
1767621247105655800,1.75365576171875,0.012284278869628906,-0.004389796406030655,0.003339409828186035
1767621247125711600,1.773711669921875,0.031441688537597656,-0.009677328169345856,-0.013112429529428482
1767621247145776600,1.793776611328125,0.024262428283691406,-0.02698889747262001,0.001318175345659256
1767621247185897700,1.833897705078125,0.017073631286621094,-0.007297780364751816,0.024635305628180504
1767621247205952800,1.853952880859375,0.00749969482421875,-0.0028896965086460114,0.010263416916131973
1767621247226021000,1.874021240234375,0.0266571044921875,-0.025139886885881424,0.0007165074348449707
1767621247266149000,1.914149169921875,0.02187061309814453,-0.018377043306827545,-0.0067244768142700195
1767621247306276400,1.9542763671875,0.03145027160644531,-0.013939958065748215,0.031874142587184906
1767621247346400500,1.994400390625,0.024270057678222656,-0.040548454970121384,-0.006382759660482407
1767621247366462000,2.0144619140625,0.005115509033203125,0.0051080286502838135,-0.0015455856919288635
1767621247386527200,2.03452734375,0.014693260192871094,-0.007101383060216904,-0.011137306690216064
1767621247426642700,2.074642578125,0.012300491333007812,-0.04577803611755371,0.010184694081544876
1767621247466754300,2.11475439453125,0.01707935333251953,-0.020964305847883224,0.0021989643573760986
1767621247506866700,2.15486669921875,0.021857261657714844,-0.00996098667383194,-0.014899443835020065
1767621247546984400,2.194984375,0.0050907135009765625,-0.02603936567902565,0.008489515632390976
1767621247587114000,2.235114013671875,0.017059326171875,-0.011113293468952179,-0.0010682344436645508
1767621247627238400,2.27523828125,0.01945209503173828,-0.013448487967252731,-0.008405007421970367
1767621247667362000,2.315362060546875,0.019449234008789062,-0.03434786945581436,0.0085010826587677
1767621247707485200,2.355485107421875,0.021839141845703125,-0.005252569913864136,0.00806964561343193
1767621247747604200,2.395604248046875,0.019437789916992188,-0.00028477609157562256,-0.01686052605509758
1767621247787728400,2.435728271484375,0.017040252685546875,-0.033473074436187744,0.0019008815288543701
1767621247827850200,2.475850341796875,0.019430160522460938,-0.030910182744264603,0.041984859853982925
1767621247847906000,2.495906005859375,0.01942920684814453,-0.02114338055253029,0.0060195960104465485
1767621247867975400,2.515975341796875,0.01464080810546875,0.0030322298407554626,-0.022489193826913834
1767621247908103700,2.556103759765625,0.014632225036621094,-0.019873879849910736,0.005749359726905823
1767621247948216800,2.596216796875,0.03378582000732422,-0.00790935754776001,0.02012070082128048
1767621247988328200,2.636328125,0.01941394805908203,-0.019460588693618774,-0.00715269148349762
1767621248008383000,2.656383056640625,0.007443428039550781,-0.014561519026756287,-0.0022764652967453003
1767621248028447200,2.676447265625,0.024201393127441406,-0.002402655780315399,-0.0022896714508533478
1767621248068569900,2.71656982421875,0.03856658935546875,-0.026198681443929672,0.019473308697342873
1767621248088626200,2.736626220703125,0.024199485778808594,-0.04031156376004219,0.004986699670553207
1767621248108696300,2.7566962890625,0.026592254638671875,-0.021165985614061356,0.004649866372346878
1767621248148824800,2.796824951171875,0.03137779235839844,-0.03269924968481064,-0.00018218904733657837
1767621248168882700,2.816882568359375,0.014620780944824219,-0.0018814168870449066,0.02141290158033371
1767621248188951000,2.836950927734375,0.028980255126953125,-0.013564132153987885,0.011151522397994995
1767621248209006000,2.857006103515625,0.021799087524414062,-0.011401478201150894,-0.005763344466686249
1767621248229071600,2.877071533203125,0.02658557891845703,-0.015715982764959335,-0.0007543787360191345
1767621248269192400,2.9171923828125,0.028974533081054688,0.01360151544213295,0.008224572986364365
1767621248289255400,2.93725537109375,0.03375816345214844,0.004266273230314255,0.010140914469957352
1767621248309322800,2.95732275390625,0.012210845947265625,-0.014887340366840363,-0.004224296659231186
1767621248329377800,2.977377685546875,0.02178668975830078,-0.021761750802397728,-0.004222746938467026
1767621248349444400,2.9974443359375,0.02657032012939453,-0.021436782553792,-0.002306777983903885
1767621248389558800,3.037558837890625,0.024173736572265625,-0.004435356706380844,-0.00733368843793869
1767621248409607700,3.057607666015625,0.014594078063964844,-0.006589237600564957,0.004158373922109604
1767621248429672000,3.077671875,0.021772384643554688,-0.00874323770403862,0.00595010444521904
1767621248469777000,3.11777685546875,0.0217742919921875,-0.02103600837290287,-0.008361168205738068
1767621248489831700,3.137831787109375,0.03135395050048828,-0.013988509774208069,-0.017636504024267197
1767621248509890000,3.15789013671875,0.01938152313232422,-0.011376649141311646,-0.0007126294076442719
1767621248550006500,3.198006591796875,0.02416515350341797,-0.010796714574098587,-0.0011388584971427917
1767621248590125800,3.238125732421875,0.02895355224609375,-0.003423534333705902,0.013356659561395645
1767621248630240300,3.278240234375,0.012202262878417969,0.0027240514755249023,0.0019733086228370667
1767621248670355200,3.318355224609375,0.024171829223632812,-0.014114640653133392,-0.0006603971123695374
1767621248710492400,3.358492431640625,0.036147117614746094,-0.007768653333187103,0.0016169995069503784
1767621248750604500,3.3986044921875,0.02178478240966797,-0.015490766614675522,-0.005670145153999329
1767621248770662700,3.41866259765625,0.014601707458496094,-0.008067242801189423,-0.0006406791508197784
1767621248790729200,3.438729248046875,0.02657318115234375,-0.01518617570400238,-0.007682841271162033
1767621248810786800,3.458786865234375,0.03614616394042969,-0.02178330533206463,0.011345401406288147
1767621248830853400,3.478853271484375,0.02178192138671875,-0.0099807009100914,-0.005528498440980911
1767621248870967000,3.518967041015625,0.02657318115234375,-0.008063703775405884,-0.014818526804447174
1767621248911145700,3.559145751953125,0.033753395080566406,-0.005486495792865753,0.016101723536849022
1767621248951253000,3.5992529296875,0.0361480712890625,-0.007869463413953781,-0.010336369276046753
1767621248971308300,3.619308349609375,0.03135871887207031,-0.012704912573099136,0.0012891404330730438
1767621248991373300,3.639373291015625,0.03614521026611328,-0.019903812557458878,-0.013278063386678696
1767621249031486700,3.67948681640625,0.02417278289794922,-0.017018143087625504,-0.005811337381601334
1767621249071604500,3.7196044921875,0.02178192138671875,-0.019839316606521606,0.01577209122478962
1767621249111722500,3.759722412109375,0.02178478240966797,-0.03195939213037491,0.001765366643667221
1767621249151886300,3.79988623046875,0.03375530242919922,-0.00135093554854393,-0.0010012835264205933
1767621249191990000,3.839989990234375,0.04332923889160156,-0.020255424082279205,0.005780994892120361
1767621249212043000,3.86004296875,0.03614616394042969,-0.022483190521597862,-0.010969247668981552
1767621249232102100,3.88010205078125,0.031357765197753906,-0.017634879797697067,-0.013439830392599106
1767621249272220400,3.920220458984375,0.024175643920898438,0.006343364715576172,0.0035898126661777496
1767621249292271900,3.94027197265625,0.021780967712402344,-0.022372035309672356,0.003469333052635193
1767621249312332000,3.96033203125,0.026567459106445312,-0.007666498422622681,0.005849670618772507
1767621249332384500,3.980384521484375,0.026569366455078125,-0.015115208923816681,-0.001220058649778366
1767621249352447200,4.000447265625,0.04093360900878906,-0.014903981238603592,-0.008514385670423508
1767621249372499200,4.020499267578125,0.03374767303466797,-0.0047883763909339905,0.0013046897947788239
1767621249392562000,4.04056201171875,0.02417469024658203,-0.014891792088747025,-0.000963408499956131
1767621249432678400,4.080678466796875,0.03374767303466797,-0.005133301019668579,-0.0039375051856040955
1767621249472795000,4.120794921875,0.043326377868652344,-0.014960475265979767,0.0033999979496002197
1767621249512905000,4.160905029296875,0.028960227966308594,-0.012760091572999954,-0.008982174098491669
1767621249532958200,4.180958251953125,0.03614330291748047,-0.027080293744802475,-0.006647113710641861
1767621249553017300,4.201017333984375,0.02895832061767578,-0.003033529967069626,0.0074965618550777435
1767621249593124900,4.241124755859375,0.021778106689453125,-0.015405893325805664,-0.0020734593272209167
1767621249613171000,4.2611708984375,0.03614521026611328,-0.020435400307178497,-0.006719864904880524
1767621249633232600,4.281232666015625,0.03374767303466797,-0.017684463411569595,-0.01648685336112976
1767621249673345800,4.321345703125,0.02178192138671875,-0.005995690822601318,-0.006369948387145996
1767621249693403400,4.3414033203125,0.03854179382324219,-0.013317406177520752,-0.0037068165838718414
1767621249713472800,4.36147265625,0.021782875061035156,-0.02976219169795513,-0.005932822823524475
1767621249753595400,4.401595458984375,0.02657032012939453,-0.012828309088945389,-0.01312188059091568
1767621249793710800,4.4417109375,0.02417755126953125,-0.02239941619336605,0.02077813819050789
1767621249833818000,4.481818115234375,0.0313568115234375,-0.0026909448206424713,0.0013587027788162231
1767621249873929700,4.5219296875,0.014598846435546875,-0.007599133998155594,-0.00546201691031456
1767621249914044400,4.56204443359375,0.03135967254638672,0.004249043762683868,0.006629735231399536
1767621249954162400,4.602162353515625,0.028966903686523438,-0.027161456644535065,0.0068277232348918915
1767621249994280700,4.64228076171875,0.03375244140625,-0.007432732731103897,-0.00040403008460998535
1767621250014334500,4.66233447265625,0.033756256103515625,-0.010247819125652313,-0.01930568739771843
1767621250034399000,4.68239892578125,0.04094123840332031,-0.019956514239311218,-0.011842533946037292
1767621250074521900,4.72252197265625,0.03615283966064453,-0.019993413239717484,0.00018493086099624634
1767621250114619400,4.762619384765625,0.026578903198242188,-0.010528873652219772,-0.0018086060881614685
1767621250154730500,4.80273046875,0.02897357940673828,0.0013069957494735718,0.003056708723306656
1767621250194848800,4.842848876953125,0.03377056121826172,-0.014085307717323303,0.0035407543182373047
1767621250234964200,4.882964111328125,0.03137779235839844,-0.016732580959796906,-0.01546618714928627
1767621250275083300,4.923083251953125,0.03617572784423828,-0.019912801682949066,-0.00719873234629631
1767621250295140600,4.943140625,0.031388282775878906,-0.03190340846776962,0.009699888527393341
1767621250315201800,4.963201904296875,0.033783912658691406,-0.00577307865023613,-0.002132199704647064
1767621250355321300,5.0033212890625,0.021820068359375,0.0030580535531044006,0.005531467497348785
1767621250395432200,5.04343212890625,0.0457611083984375,-0.02593107707798481,0.01000773161649704
1767621250435553500,5.083553466796875,0.043366432189941406,-0.00934668630361557,-0.004725996404886246
1767621250475678500,5.123678466796875,0.031391143798828125,-0.010913357138633728,0.000014290213584899902
1767621250515793400,5.16379345703125,0.024211883544921875,-0.013472113758325577,0.007754173129796982
1767621250535850200,5.183850341796875,0.03618621826171875,-0.016353745013475418,-0.001721024513244629
1767621250555912400,5.203912353515625,0.03857707977294922,-0.006455518305301666,0.00997874140739441
1767621250575966500,5.223966552734375,0.04814910888671875,-0.01534876599907875,0.009819529950618744
1767621250596026000,5.244026123046875,0.03138446807861328,-0.014779262244701385,-0.0002669021487236023
1767621250636137700,5.2841376953125,0.03856182098388672,-0.011854894459247589,0.013803225010633469
1767621250676252700,5.324252685546875,0.03376483917236328,0.005778547376394272,0.0009715966880321503
1767621250716364500,5.364364501953125,0.026584625244140625,-0.00894789770245552,-0.0014215447008609772
1767621250756479700,5.404479736328125,0.028974533081054688,-0.015650644898414612,-0.001663748174905777
1767621250776533000,5.424532958984375,0.03376293182373047,-0.008707288652658463,-0.002022862434387207
1767621250796593200,5.44459326171875,0.028972625732421875,-0.010957729071378708,-0.014221731573343277
1767621250836707600,5.48470751953125,0.04812335968017578,-0.025383837521076202,0.004182625561952591
1767621250876812300,5.524812255859375,0.05290794372558594,-0.01273510605096817,-0.014974560588598251
1767621250916924400,5.56492431640625,0.033753395080566406,-0.02245522104203701,0.008601061999797821
1767621250936982000,5.58498193359375,0.019388198852539062,-0.029461750760674477,0.0016502514481544495
1767621250957048000,5.605048095703125,0.028963088989257812,0.0067582204937934875,0.006303608417510986
1767621250977105400,5.62510546875,0.028962135314941406,-0.01698550209403038,-0.010450519621372223
1767621250997170400,5.64517041015625,0.04332447052001953,-0.011988382786512375,0.0012853965163230896
1767621251037281000,5.685281005859375,0.03135108947753906,0.00030901655554771423,-0.008658327162265778
1767621251077396200,5.725396240234375,0.04332160949707031,-0.02606925740838051,0.0054579488933086395
1767621251117512200,5.76551220703125,0.03853130340576172,-0.016399163752794266,-0.0019384287297725677
1767621251157628400,5.80562841796875,0.04092121124267578,-0.028077280148863792,-0.0025998614728450775
1767621251197742600,5.84574267578125,0.036131858825683594,-0.025325801223516464,-0.0071938373148441315
1767621251237859300,5.885859375,0.03851890563964844,-0.0003534145653247833,-0.01005169004201889
1767621251277975300,5.925975341796875,0.026544570922851562,-0.007100634276866913,0.013678452000021935
1767621251318084000,5.966083984375,0.03611946105957031,-0.0021273940801620483,0.0014967620372772217
1767621251358188000,6.00618798828125,0.040909767150878906,-0.0024421624839305878,-0.012876216322183609
1767621251398302700,6.046302734375,0.031332969665527344,0.004661526530981064,-0.0008423402905464172
1767621251438424000,6.086424072265625,0.04090690612792969,0.004784528166055679,-0.0015608705580234528
1767621251478532400,6.126532470703125,0.04090118408203125,-0.015804536640644073,0.007774952799081802
1767621251518646300,6.166646240234375,0.03850078582763672,-0.0032355748116970062,-0.004920728504657745
1767621251558760700,6.2067607421875,0.03850078582763672,-0.010418672114610672,-0.002405565232038498
1767621251598873600,6.24687353515625,0.038496971130371094,-0.0028188861906528473,-0.010021336376667023
1767621251638976800,6.286976806640625,0.04328346252441406,-0.003058195114135742,-0.013255659490823746
1767621251679086300,6.32708642578125,0.03610420227050781,-0.005811106413602829,-0.008104357868432999
1767621251719194400,6.3671943359375,0.03131580352783203,-0.0034957490861415863,0.0037867389619350433
1767621251759293200,6.407293212890625,0.050469398498535156,0.005961693823337555,0.003547176718711853
1767621251779339500,6.427339599609375,0.03370952606201172,-0.0012209117412567139,0.003547176718711853
1767621251799397400,6.4473974609375,0.040892601013183594,-0.025282347574830055,0.001033734530210495
1767621251839507500,6.487507568359375,0.043292999267578125,-0.004334472119808197,-0.0029139742255210876
1767621251859560400,6.507560546875,0.04329490661621094,-0.02390943095088005,0.01383177936077118
1767621251879622100,6.5276220703125,0.03371715545654297,-0.004581980407238007,-0.003053605556488037
1767621251919736000,6.567736083984375,0.031327247619628906,-0.0030266717076301575,-0.017296958714723587
1767621251939789800,6.587789794921875,0.036116600036621094,-0.024517439305782318,-0.01463557779788971
1767621251959856600,6.607856689453125,0.038509368896484375,0.009123273193836212,-0.00026858970522880554
1767621251999972900,6.647972900390625,0.03372478485107422,0.0010991841554641724,0.006672613322734833
1767621252040086000,6.6880859375,0.033725738525390625,-0.011231046169996262,-0.0054155029356479645
1767621252080197600,6.72819775390625,0.04809379577636719,-0.025878876447677612,-0.007421068847179413
1767621252120330500,6.76833056640625,0.04809284210205078,-0.0020580925047397614,-0.007901232689619064
1767621252140389000,6.78838916015625,0.038514137268066406,-0.008961774408817291,-0.019948765635490417
1767621252160452600,6.80845263671875,0.036118507385253906,-0.016083937138319016,0.003663398325443268
1767621252200567800,6.84856787109375,0.040909767150878906,-0.004192892462015152,0.0017038434743881226
1767621252220623600,6.86862353515625,0.045701026916503906,-0.0022206827998161316,-0.019429992884397507
1767621252240688000,6.888688232421875,0.03372955322265625,-0.018877729773521423,-0.014672692865133286
1767621252280805400,6.928805419921875,0.03851890563964844,-0.0069875568151474,0.0021484754979610443
1767621252320910300,6.968910400390625,0.04091072082519531,-0.02330479770898819,0.004469092935323715
1767621252361024300,7.009024169921875,0.038516998291015625,-0.009154580533504486,-0.00035497546195983887
1767621252381081900,7.029081787109375,0.036121368408203125,-0.011354438960552216,-0.005260340869426727
1767621252401146600,7.049146728515625,0.043304443359375,0.0051651038229465485,-0.0005911365151405334
1767621252441267700,7.089267822265625,0.036124229431152344,-0.014165099710226059,-0.007498331367969513
1767621252481398000,7.12939794921875,0.03612518310546875,0.009783666580915451,-0.021581299602985382
1767621252501454800,7.149454833984375,0.04570198059082031,-0.006929673254489899,-0.01441345363855362
1767621252521521700,7.169521728515625,0.04330921173095703,-0.02394028753042221,-0.00950576737523079
1767621252561632500,7.209632568359375,0.03372764587402344,-0.02554364874958992,-0.014351330697536469
1767621252581689900,7.22968994140625,0.03133392333984375,0.0009196698665618896,-0.011868756264448166
1767621252601753000,7.249753173828125,0.040912628173828125,-0.008784960955381393,-0.009270690381526947
1767621252641874000,7.2898740234375,0.03851604461669922,-0.008333861827850342,-0.00906861200928688
1767621252681997800,7.329997802734375,0.02655029296875,-0.008809253573417664,0.0035203546285629272
1767621252722125000,7.370125,0.03852367401123047,-0.02823193185031414,-0.008281011134386063
1767621252762250200,7.410250244140625,0.03612804412841797,-0.008734025061130524,-0.00112934410572052
1767621252802364400,7.450364501953125,0.045706748962402344,-0.0017945878207683563,-0.0007715113461017609
1767621252842476800,7.490476806640625,0.0337371826171875,-0.014308631420135498,-0.015456918627023697
1767621252882598000,7.530597900390625,0.024158477783203125,-0.03279229253530502,-0.01991131156682968
1767621252922719500,7.570719482421875,0.02176380157470703,0.046423278748989105,0.03738344460725784
1767621252962837800,7.610837646484375,0.02655315399169922,-0.018649257719516754,-0.003486320376396179
1767621253002960100,7.650960205078125,0.036131858825683594,-0.028286831453442574,-0.04621768742799759
1767621253043076000,7.691076171875,0.03374004364013672,0.004890479147434235,0.035477034747600555
1767621253083197400,7.731197509765625,0.052890777587890625,0.0005873255431652069,-0.0149652399122715
1767621253123319000,7.771319091796875,0.040923118591308594,-0.0380793996155262,-0.02895670011639595
1767621253163448000,7.811447998046875,0.036131858825683594,0.012065991759300232,0.020403409376740456
1767621253203569700,7.851569580078125,0.028946876525878906,-0.01654449850320816,-0.0039000585675239563
1767621253243688000,7.89168798828125,0.03612804412841797,-0.028153588995337486,-0.04929720237851143
1767621253283801300,7.93180126953125,0.031340599060058594,-0.01869877800345421,0.020222054794430733
1767621253323921200,7.971921142578125,0.05288410186767578,-0.037228938192129135,-0.0015368089079856873
1767621253364040400,8.01204052734375,0.03612709045410156,0.0152302086353302,-0.02299658954143524
1767621253404163000,8.0521630859375,0.04091358184814453,-0.03211500495672226,0.008453026413917542
1767621253444291800,8.092291748046875,0.04569816589355469,-0.022137999534606934,0.01271442137658596
1767621253484417500,8.13241748046875,0.03611946105957031,0.006787944585084915,-0.011248238384723663
1767621253524528000,8.172528076171876,0.03372764587402344,-0.008397981524467468,-0.021272357553243637
1767621253564643600,8.2126435546875,0.036118507385253906,-0.02253168448805809,0.014229446649551392
1767621253584702700,8.23270263671875,0.03133392333984375,0.015534721314907074,0.009799577295780182
1767621253604766000,8.252765869140624,0.03612232208251953,0.015294861048460007,-0.02395889163017273
1767621253644889300,8.292889404296876,0.04330253601074219,-0.039563730359077454,-0.014604121446609497
1767621253685015300,8.333015380859376,0.038514137268066406,0.025010474026203156,0.0021521858870983124
1767621253725132500,8.373132568359376,0.028940200805664062,-0.032598428428173065,-0.01884540170431137
1767621253745180200,8.39318017578125,0.021759033203125,0.003122050315141678,-0.009214069694280624
1767621253765244200,8.413244140625,0.02654743194580078,-0.006507907062768936,-0.03086572140455246
1767621253805367000,8.453366943359375,0.03612327575683594,-0.03457898274064064,0.022375069558620453
1767621253845488000,8.493488037109374,0.02654552459716797,0.008722152560949326,-0.018188241869211197
1767621253865545700,8.513545654296875,0.040912628173828125,-0.015393994748592377,-0.010948371142148972
1767621253885619000,8.533618896484375,0.04091358184814453,-0.027583608403801918,-0.018146533519029617
1767621253905679400,8.553679443359375,0.04091358184814453,-0.0037906691431999207,-0.004070304334163666
1767621253925741600,8.573741455078125,0.03373241424560547,0.022426128387451172,0.022508010268211365
1767621253965860000,8.613860107421875,0.033733367919921875,-0.025711659342050552,0.0033259131014347076
1767621254005974300,8.653974365234374,0.028947830200195312,0.005089849233627319,-0.012998633086681366
1767621254046093000,8.694093017578124,0.016977310180664062,-0.01880393922328949,0.01342453621327877
1767621254086217500,8.734217529296876,0.043311119079589844,0.0028113722801208496,0.003382686525583267
1767621254126317000,8.774317138671876,0.03133678436279297,0.002855788916349411,-0.006785817444324493
1767621254166435600,8.814435546875,0.038521766662597656,0.0023749060928821564,0.005068056285381317
1767621254206552300,8.85455224609375,0.0241546630859375,-0.01922835037112236,-0.009759712964296341
1767621254246673000,8.8946728515625,0.031341552734375,0.011482369154691696,-0.00949488952755928
1767621254286797600,8.934797607421874,0.03612709045410156,-0.014726180583238602,0.002143409103155136
1767621254326916600,8.97491650390625,0.045701026916503906,-0.004966601729393005,-0.007892724126577377
1767621254367022000,9.01502197265625,0.02893352508544922,-0.0037975087761878967,-0.020238231867551804
1767621254407131400,9.05513134765625,0.028936386108398438,-0.011313438415527344,0.001491554081439972
1767621254447254500,9.095254638671875,0.03372764587402344,-0.002218283712863922,0.0038862451910972595
1767621254487365000,9.135365234375,0.024147987365722656,0.007840584963560104,0.01825244165956974
1767621254527486500,9.175486572265624,0.03372669219970703,-0.016461219638586044,0.008436404168605804
1767621254567608800,9.21560888671875,0.014569282531738281,-0.016100365668535233,-0.008610919117927551
1767621254607742500,9.255742431640625,0.03850841522216797,0.00580848753452301,-0.013759702444076538
1767621254647866400,9.295866455078125,0.03132820129394531,-0.009110469371080399,-0.018611475825309753
1767621254687990800,9.33599072265625,0.03611278533935547,0.007820282131433487,0.01173398643732071
1767621254728109800,9.37610986328125,0.033718109130859375,0.00027697905898094177,-0.008022915571928024
1767621254768227300,9.416227294921875,0.03851032257080078,-0.019539788365364075,-0.02449752762913704
1767621254808355300,9.456355224609375,0.04329872131347656,-0.019760753959417343,-0.003321956843137741
1767621254848481800,9.496481689453125,0.03611946105957031,-0.013019409030675888,-0.0007542036473751068
1767621254888597200,9.53659716796875,0.033730506896972656,-0.013794641941785812,-0.012362223118543625
1767621254928717300,9.57671728515625,0.03133583068847656,-0.020798146724700928,0.01405109092593193
1767621254968831500,9.61683154296875,0.019364356994628906,-0.016099639236927032,-0.010173454880714417
1767621254988887000,9.636886962890625,0.021759986877441406,-0.0068769678473472595,-0.017394352704286575
1767621255008951300,9.656951416015625,0.05528068542480469,-0.01416538655757904,-0.017170801758766174
1767621255029013800,9.677013671875,0.026552200317382812,0.0046845488250255585,0.004537757486104965
1767621255049078000,9.697078125,0.036128997802734375,-0.007229045033454895,-0.014558117836713791
1767621255089204500,9.73720458984375,0.04331207275390625,-0.019300874322652817,-0.00975845754146576
1767621255129330700,9.77733056640625,0.03613090515136719,-0.01704460009932518,-0.00261664018034935
1767621255169465600,9.817465576171875,0.033733367919921875,-0.011900343000888824,-0.005123812705278397
1767621255209588500,9.85758837890625,0.026548385620117188,-0.016057074069976807,-0.0025589019060134888
1767621255249719800,9.8977197265625,0.02654743194580078,-0.0038450732827186584,-0.00971313938498497
1767621255269786000,9.9177861328125,0.016973495483398438,-0.006768804043531418,0.009461821988224983
1767621255289857000,9.93785693359375,0.026548385620117188,-0.011109687387943268,-0.014309950172901154
1767621255329992200,9.9779921875,0.03612804412841797,-0.011549670249223709,-0.0022734589874744415
1767621255370132000,10.018132080078125,0.026552200317382812,-0.009208984673023224,-0.009349685162305832
1767621255390196200,10.0381962890625,0.028949737548828125,-0.014598757028579712,-0.013700626790523529
1767621255410273800,10.058273681640625,0.04092121124267578,-0.009695842862129211,-0.013727616518735886
1767621255450423600,10.098423583984374,0.038527488708496094,0.006980810314416885,0.007887832820415497
1767621255470480100,10.118480224609375,0.033740997314453125,-0.010095823556184769,-0.00885181874036789
1767621255490616600,10.138616455078125,0.019374847412109375,-0.010041933506727219,-0.004040837287902832
1767621255530750700,10.178750732421875,0.021764755249023438,-0.004836048930883408,0.0024410374462604523
1767621255570958800,10.218958740234376,0.04330921173095703,-0.01166427880525589,0.011561069637537003
1767621255611144200,10.259144287109375,0.019365310668945312,-0.009334366768598557,-0.012573324143886566
1767621255651270700,10.299270751953125,0.01937103271484375,-0.01967794820666313,-0.002880733460187912
1767621255691388000,10.339387939453125,0.028942108154296875,-0.012007739394903183,-0.01539197564125061
1767621255731506700,10.379506591796876,0.028939247131347656,-0.009445052593946457,-0.02553243562579155
1767621255751563500,10.3995634765625,0.03612232208251953,-0.023662639781832695,-0.008776899427175522
1767621255771627800,10.419627685546875,0.03851604461669922,-0.011568523943424225,-0.0037863142788410187
1767621255811750700,10.459750732421876,0.033722877502441406,-0.02761213481426239,-0.0016268827021121979
1767621255851872300,10.499872314453125,0.03850841522216797,-0.01294969767332077,-0.018606308847665787
1767621255891990000,10.539989990234375,0.03610992431640625,0.0021139010787010193,0.00711437501013279
1767621255932100000,10.58010009765625,0.03132057189941406,-0.021985290572047234,-0.012229859828948975
1767621255972219100,10.62021923828125,0.014562606811523438,-0.010220162570476532,-0.0026310160756111145
1767621255992277000,10.640277099609374,0.040897369384765625,-0.0007131136953830719,-0.0007942281663417816
1767621256012339200,10.660339111328126,0.04807567596435547,-0.021705737337470055,-0.0010008104145526886
1767621256052465000,10.70046484375,0.028923988342285156,-0.010277029126882553,-0.01563318818807602
1767621256092591600,10.740591552734376,0.03610420227050781,-0.014909710735082626,-0.01625533401966095
1767621256132714200,10.78071435546875,0.036102294921875,-0.009983513504266739,-0.011796537786722183
1767621256172832500,10.82083251953125,0.03610420227050781,-0.015027858316898346,-0.009182389825582504
1767621256212950800,10.86095068359375,0.031314849853515625,-0.005210958421230316,-0.006796393543481827
1767621256253073400,10.901073486328125,0.0337066650390625,-0.00020536035299301147,-0.0023552700877189636
1767621256293193700,10.94119384765625,0.02412891387939453,-0.012146685272455215,-0.014528878033161163
1767621256313251300,10.961251220703126,0.0289154052734375,-0.023912940174341202,-0.014693032950162888
1767621256333316000,10.981316162109374,0.036095619201660156,-0.006705842912197113,-0.01734016090631485
1767621256353371400,11.001371337890625,0.019333839416503906,-0.0017277263104915619,-0.017331562936306
1767621256373435400,11.021435302734375,0.03130531311035156,-0.0016848184168338776,-0.010296661406755447
1767621256413547500,11.061547607421875,0.019333839416503906,-0.015991240739822388,-0.010271739214658737
1767621256453667600,11.10166748046875,0.02891254425048828,-0.001652546226978302,0.0023286081850528717
1767621256493800700,11.14180078125,0.03370189666748047,-0.006778929382562637,-0.019300300627946854
1767621256513851400,11.161851318359375,0.036095619201660156,-0.02820410765707493,-0.01941392943263054
1767621256533913600,11.18191357421875,0.03370380401611328,-0.011715609580278397,-0.004852697253227234
1767621256574026800,11.22202685546875,0.036103248596191406,-0.009781721979379654,-0.011193349957466125
1767621256614148000,11.262148193359375,0.038494110107421875,-0.009167727082967758,-0.018397308886051178
1767621256654255000,11.302255126953124,0.03131294250488281,-0.0019859224557876587,-0.0013961754739284515
1767621256694367000,11.342366943359375,0.02891826629638672,-0.009215574711561203,-0.023098859935998917
1767621256734481000,11.38248095703125,0.03370475769042969,-0.013729501515626907,0.007903560996055603
1767621256774605000,11.42260498046875,0.01934051513671875,0.007902845740318298,-0.008569605648517609
1767621256814735000,11.462735107421874,0.03131294250488281,-0.011490009725093842,-0.012994177639484406
1767621256854854400,11.5028544921875,0.01934337615966797,-0.006498154252767563,-0.014708731323480606
1767621256894967300,11.54296728515625,0.01934337615966797,-0.011279858648777008,-0.0050553977489471436
1767621256915018500,11.5630185546875,0.043285369873046875,-0.0014372766017913818,-0.007310766726732254
1767621256935080700,11.583080810546875,0.03131294250488281,-0.008446209132671356,-0.014438070356845856
1767621256955140600,11.603140625,0.03131580352783203,0.012742739170789719,-0.007134348154067993
1767621256975207700,11.623207763671875,0.01694774627685547,-0.013232607394456863,-0.0003136545419692993
1767621257015332600,11.66333251953125,0.02412891387939453,-0.0035115517675876617,-0.02454088255763054
1767621257055461400,11.70346142578125,0.019336700439453125,-0.005473729223012924,-0.017440181225538254
1767621257075523300,11.7235234375,0.03609657287597656,-0.014966379851102829,-0.02457815781235695
1767621257095587800,11.743587890625,0.028913497924804688,-0.010001905262470245,0.013896835967898369
1767621257135698000,11.783697998046875,0.03370094299316406,-0.0075102299451828,-0.015163633972406387
1767621257175818200,11.823818359375,0.0241241455078125,-0.004969194531440735,-0.01716114953160286
1767621257215944200,11.863944091796874,0.03370380401611328,-0.005308911204338074,-0.009617328643798828
1767621257256066000,11.904066162109375,0.04088783264160156,-0.020011359825730324,-0.005059454590082169
1767621257276125400,11.92412548828125,0.04088878631591797,-0.020048612728714943,-0.014526605606079102
1767621257296187100,11.944187255859376,0.04567718505859375,-0.005530513823032379,-0.028733696788549423
1767621257316243000,11.964242919921874,0.03849220275878906,-0.007794827222824097,-0.014454297721385956
1767621257336302300,11.98430224609375,0.02892017364501953,-0.015558358281850815,-0.0021303147077560425
1767621257376416800,12.024416748046875,0.036101341247558594,0.001638408750295639,-0.014048274606466293
1767621257396474000,12.04447412109375,0.03131294250488281,-0.012895889580249786,-0.009189307689666748
1767621257416541000,12.064541015625,0.019341468811035156,-0.0032575540244579315,-0.006846707314252853
1767621257456661500,12.10466162109375,0.033705711364746094,0.013976015150547028,-0.023427169770002365
1767621257496789500,12.14478955078125,0.028917312622070312,-0.007420234382152557,-0.001745179295539856
1767621257536915500,12.18491552734375,0.03609657287597656,-0.004404257982969284,-0.004109915345907211
1767621257577038300,12.225038330078124,0.031310081481933594,0.014403276145458221,-0.02082502469420433
1767621257617185800,12.265185791015625,0.03609657287597656,-0.02119486778974533,0.0006360337138175964
1767621257657293000,12.30529296875,0.028914451599121094,-0.002269566059112549,-0.0137510746717453
1767621257697419000,12.3454189453125,0.03370380401611328,0.011906195431947708,-0.009150303900241852
1767621257737543200,12.385543212890624,0.028913497924804688,-0.004493329674005508,-0.001969367265701294
1767621257777657600,12.42565771484375,0.026515960693359375,0.0029324106872081757,-0.019497711211442947
1767621257817771000,12.46577099609375,0.04327106475830078,-0.0012538358569145203,0.01641867682337761
1767621257857874700,12.505874755859375,0.02650928497314453,-0.005531154572963715,-0.027106627821922302
1767621257897980000,12.54597998046875,0.036083221435546875,-0.01472613587975502,-0.012744106352329254
1767621257918029600,12.566029541015626,0.021719932556152344,-0.01277206838130951,-0.015419431030750275
1767621257938091000,12.586091064453125,0.03129768371582031,-0.017466584220528603,-0.01970518007874489
1767621257978208000,12.6262080078125,0.031302452087402344,-0.018154794350266457,-0.011969510465860367
1767621258018331100,12.6663310546875,0.033698081970214844,0.012900043278932571,0.0027945153415203094
1767621258058441200,12.706441162109375,0.026517868041992188,-0.027889065444469452,-0.011134598404169083
1767621258098543600,12.746543701171875,0.040882110595703125,-0.01576387509703636,0.0007036440074443817
1767621258118595600,12.766595703125,0.031307220458984375,0.00561046227812767,-0.011221658438444138
1767621258138636300,12.78663623046875,0.04088401794433594,-0.015746623277664185,-0.003764774650335312
1767621258178750500,12.82675048828125,0.026520729064941406,-0.013716824352741241,-0.0035809464752674103
1767621258218863600,12.866863525390626,0.03849029541015625,0.012822534888982773,0.02052897773683071
1767621258238915000,12.8869150390625,0.036093711853027344,-0.015428692102432251,-0.013230245560407639
1767621258258972700,12.90697265625,0.043272972106933594,-0.000701412558555603,-0.00389307364821434
1767621258279024400,12.9270244140625,0.02890300750732422,-0.0022564195096492767,-0.018617935478687286
1767621258299086000,12.947086181640625,0.036087989807128906,-0.011834114789962769,-0.0038926899433135986
1767621258339196200,12.987196044921875,0.038478851318359375,0.01234770193696022,-0.004131492227315903
1767621258379304700,13.0273046875,0.04805946350097656,-0.004656236618757248,-0.017849359661340714
1767621258419424800,13.0674248046875,0.03369426727294922,0.0002738684415817261,0.004100952297449112
1767621258459540200,13.107540283203125,0.048061370849609375,-0.0021175332367420197,-0.012296080589294434
1767621258499653000,13.147653076171874,0.036090850830078125,-0.009265724569559097,-0.0026874877512454987
1767621258539767600,13.187767578125,0.03129863739013672,0.01048743724822998,0.004133835434913635
1767621258579871000,13.22787109375,0.028900146484375,-0.015104709193110466,-0.010321948677301407
1767621258599927600,13.247927490234375,0.031294822692871094,-0.005604784935712814,-0.012653525918722153
1767621258619994000,13.267994140625,0.026508331298828125,0.00385206937789917,0.004226837307214737
1767621258660116700,13.30811669921875,0.02411365509033203,-0.0033228807151317596,-0.0028604790568351746
1767621258680163300,13.328163330078125,0.028902053833007812,-0.0009286776185035706,0.00659647211432457
1767621258700220400,13.348220458984375,0.019329071044921875,-0.020802602171897888,-0.009920038282871246
1767621258720268000,13.36826806640625,0.045665740966796875,0.003140334039926529,0.006960354745388031
1767621258740321300,13.3883212890625,0.043270111083984375,-0.0087093785405159,-0.005370639264583588
1767621258780434700,13.4284345703125,0.024117469787597656,0.014863397926092148,-0.01752951368689537
1767621258820540200,13.4685400390625,0.03848457336425781,0.007092654705047607,-0.0008313693106174469
1767621258840594000,13.488593994140626,0.036090850830078125,0.0020618438720703125,-0.015397366136312485
1767621258860654300,13.508654296875,0.04088020324707031,0.006596904247999191,-0.015558909624814987
1767621258900768000,13.54876806640625,0.024122238159179688,-0.003205779939889908,0.0016158036887645721
1767621258920823300,13.5688232421875,0.033699989318847656,-0.010509654879570007,-0.0056884028017520905
1767621258940888600,13.588888671875,0.03130626678466797,-0.010508745908737183,-0.003293052315711975
1767621258981006800,13.6290068359375,0.03370189666748047,0.010687712579965591,-0.020102493464946747
1767621259001057500,13.6490576171875,0.03130817413330078,-0.006059926003217697,-0.010467838495969772
1767621259021116000,13.669115966796875,0.033699989318847656,0.0014842823147773743,-0.003284670412540436
1767621259061219800,13.7092197265625,0.03370380401611328,0.007940445095300674,-0.015209294855594635
1767621259081271300,13.729271240234375,0.031311988830566406,0.0005126185715198517,-0.015035446733236313
1767621259101334800,13.749334716796875,0.052860260009765625,-0.006783343851566315,-0.010169010609388351
1767621259121391900,13.769391845703124,0.036095619201660156,0.0011194534599781036,-0.013088677078485489
1767621259141453300,13.789453369140626,0.0241241455078125,-0.0037880055606365204,0.005946241319179535
1767621259181569500,13.829569580078125,0.03609466552734375,-0.017914341762661934,-0.0035102590918540955
1767621259201625000,13.849625,0.031310081481933594,0.010575320571660995,-0.010214325040578842
1767621259221686800,13.869686767578125,0.040884971618652344,-0.00354771688580513,-0.019852444529533386
1767621259261799200,13.909799072265624,0.045676231384277344,-0.008649911731481552,-0.0003158971667289734
1767621259301906400,13.949906494140626,0.03371143341064453,0.002579234540462494,0.0076838769018650055
1767621259321960000,13.9699599609375,0.03850364685058594,0.02340858429670334,-0.0020116567611694336
1767621259342025000,13.99002490234375,0.02892780303955078,-0.0032902732491493225,0.0074429698288440704
1767621259382148400,14.0301484375,0.04808330535888672,0.008608371019363403,-0.016109704971313477
1767621259422267000,14.070266845703125,0.04090690612792969,-0.0060926154255867004,-0.015188533812761307
1767621259462385400,14.110385498046876,0.03851318359375,-0.01580871269106865,-0.012683447450399399
1767621259502508800,14.1505087890625,0.05048656463623047,-0.02557976171374321,-0.017142608761787415
1767621259542622200,14.190622314453124,0.03372764587402344,-0.0015303194522857666,-0.0025353580713272095
1767621259562678000,14.210677978515625,0.019359588623046875,-0.020278627052903175,0.016383811831474304
1767621259582741500,14.230741455078125,0.03372478485107422,-0.025201335549354553,-0.00514577329158783
1767621259622861000,14.270861083984375,0.026546478271484375,0.0006232932209968567,0.002207227051258087
1767621259662984200,14.310984130859374,0.04091358184814453,0.00014606118202209473,-0.009878929704427719
1767621259703100400,14.351100341796876,0.03612327575683594,-0.016463760286569595,-0.019649788737297058
1767621259743214300,14.39121435546875,0.036118507385253906,-0.008800040930509567,0.0014170072972774506
1767621259783366700,14.43136669921875,0.026541709899902344,-0.006528005003929138,-0.005888123065233231
1767621259823454500,14.471454345703124,0.036121368408203125,-0.011965949088335037,-0.01829700544476509
1767621259863569700,14.511569580078126,0.03611564636230469,-0.0020206086337566376,0.0025179386138916016
1767621259903683800,14.551683837890625,0.03371906280517578,-0.009158864617347717,-0.009907696396112442
1767621259943793200,14.591793212890625,0.019350051879882812,-0.015922456979751587,-0.007914707064628601
1767621259963841800,14.611841796875,0.043288230895996094,-0.005904871970415115,0.013280801475048065
1767621259983904300,14.631904296875,0.045683860778808594,0.017797771841287613,-0.01317397877573967
1767621260024009200,14.67200927734375,0.04568195343017578,-0.017785098403692245,-0.03483953699469566
1767621260064115000,14.712114990234374,0.026528358459472656,0.010931435972452164,0.008182680234313011
1767621260104224300,14.752224365234374,0.02892303466796875,-0.0012771449983119965,-0.008694052696228027
1767621260124275500,14.772275390625,0.02413177490234375,-0.020018013194203377,-0.020826738327741623
1767621260144339200,14.792339111328126,0.03610038757324219,0.0019283778965473175,-0.016297388821840286
1767621260184464600,14.832464599609375,0.040889739990234375,0.020973313599824905,0.003042694181203842
1767621260224567600,14.872567626953124,0.03609943389892578,-0.007758449763059616,-0.004623141139745712
1767621260264669700,14.912669677734375,0.04328155517578125,-0.0029451772570610046,-0.03826196864247322
1767621260304787000,14.952786865234375,0.02412700653076172,-0.017442937940359116,-0.014512501657009125
1767621260344905700,14.99290576171875,0.026521682739257812,-0.005521230399608612,0.01382550410926342
1767621260364958500,15.01295849609375,0.04567241668701172,-0.017273344099521637,-0.02235899493098259
1767621260385022700,15.033022705078125,0.038486480712890625,-0.007139489054679871,-0.01759592816233635
1767621260425138200,15.07313818359375,0.050464630126953125,-0.010486096143722534,-0.009914759546518326
1767621260465256700,15.113256591796874,0.031311988830566406,-0.0009085424244403839,-0.019353549927473068
1767621260505363000,15.153363037109376,0.04327869415283203,-0.007752075791358948,-0.03404109179973602
1767621260545473800,15.193473876953124,0.0241241455078125,0.011810693889856339,-0.005013462156057358
1767621260565529600,15.213529541015625,0.026520729064941406,-0.01955242268741131,0.01653611660003662
1767621260585591000,15.233591064453124,0.014548301696777344,-0.021759748458862305,-0.01693568378686905
1767621260625713000,15.273712890625,0.03370094299316406,0.002529565244913101,-0.01681358739733696
1767621260665828600,15.31382861328125,0.040882110595703125,-0.01887487806379795,-0.01698089763522148
1767621260705942000,15.35394189453125,0.03848457336425781,-0.003898587077856064,0.0021242275834083557
1767621260746042000,15.3940419921875,0.040879249572753906,-0.0062814392149448395,-0.016917292028665543
1767621260786151000,15.43415087890625,0.040877342224121094,-0.006036289036273956,-0.02181144431233406
1767621260806202000,15.4542021484375,0.03608989715576172,0.00836365669965744,-0.016912508755922318
1767621260826264000,15.47426416015625,0.02890777587890625,-0.010910365730524063,0.007149921730160713
1767621260866370000,15.5143701171875,0.02651500701904297,-0.0013344436883926392,-0.006855830550193787
1767621260906468400,15.55446826171875,0.03131103515625,0.002331893891096115,-0.030356716364622116
1767621260926520600,15.5745205078125,0.03849601745605469,-0.0075758956372737885,0.001061663031578064
1767621260946579200,15.5945791015625,0.03849506378173828,0.0019059553742408752,-0.01609036698937416
1767621260986683000,15.634682861328125,0.026526451110839844,-0.022582456469535828,-0.008966553956270218
1767621261006733000,15.654733154296874,0.03131580352783203,-0.008259449154138565,-0.030372045934200287
1767621261026791700,15.674791748046875,0.04089546203613281,-0.03986936807632446,-0.015801850706338882
1767621261066917000,15.714917236328125,0.02413654327392578,0.00821143388748169,-0.0009851083159446716
1767621261107040500,15.75504052734375,0.04329109191894531,-0.006394166499376297,0.013262443244457245
1767621261147167500,15.79516748046875,0.036113739013671875,-0.014190807938575745,-0.0031950436532497406
1767621261187296000,15.8352958984375,0.03611278533935547,-0.0021904483437538147,-0.0009097903966903687
1767621261227422500,15.87542236328125,0.04090309143066406,-0.01687924563884735,-0.007898077368736267
1767621261267548000,15.9155478515625,0.02892589569091797,0.0005075149238109589,-0.02297738566994667
1767621261307674000,15.955674072265625,0.02413654327392578,-0.006527479737997055,0.003292638808488846
1767621261347802600,15.995802734375,0.0265350341796875,-0.023510202765464783,0.003958545625209808
1767621261387925000,16.035925048828126,0.05047416687011719,-0.010729506611824036,-0.007771946489810944
1767621261407981800,16.05598193359375,0.036108970642089844,-0.008265919983386993,-0.00509590283036232
1767621261428044300,16.076044189453125,0.045683860778808594,-0.005681145936250687,-0.012458514422178268
1767621261468189000,16.11618896484375,0.028923988342285156,-0.012850724160671234,0.0067285411059856415
1767621261508298800,16.156298828125,0.02892589569091797,-0.015033487230539322,-0.016563493758440018
1767621261548415200,16.196415283203127,0.031319618225097656,-0.005539994686841965,0.011701416224241257
1767621261588566500,16.23656640625,0.021742820739746094,-0.01068924367427826,-0.0006286352872848511
1767621261628693200,16.276693359375,0.036108970642089844,-0.010881561785936356,-0.0054385848343372345
1767621261668815400,16.3168154296875,0.04089832305908203,-0.016003619879484177,-0.0008944757282733917
1767621261708970800,16.356970703125,0.03132343292236328,0.0004817843437194824,0.004150561988353729
1767621261749096200,16.39709619140625,0.02414226531982422,-0.01645815372467041,-0.017241962254047394
1767621261789218300,16.43721826171875,0.04569244384765625,-0.02640751376748085,-0.017268124967813492
1767621261829340200,16.477340087890624,0.03132343292236328,0.002889823168516159,-0.0006829239428043365
1767621261869461200,16.517461181640623,0.03371715545654297,-0.013573531061410904,-0.004959944635629654
1767621261909585200,16.557585205078126,0.04569244384765625,-0.004072178155183792,-0.020923402160406113
1767621261949719600,16.597719482421876,0.026541709899902344,0.007417913526296616,0.019779838621616364
1767621261989836000,16.6378359375,0.02414989471435547,-0.02423759177327156,-0.011450309306383133
1767621262029962000,16.6779619140625,0.03611946105957031,-0.01676037535071373,-0.0090484619140625
1767621262070089700,16.71808984375,0.033728599548339844,0.008894845843315125,0.007853902876377106
1767621262110216200,16.75821630859375,0.03372764587402344,-0.01049627736210823,-0.01177799329161644
1767621262150315800,16.798315673828125,0.04330921173095703,-0.0012981034815311432,-0.013469960540533066
1767621262190423000,16.838423095703124,0.026552200317382812,-0.008838977664709091,0.0033624060451984406
1767621262230537200,16.878537109375,0.04331398010253906,-0.01857999712228775,-0.001280851662158966
1767621262270664700,16.918664794921874,0.031348228454589844,-0.007329877465963364,-0.0032900460064411163
1767621262310791400,16.95879150390625,0.036139488220214844,0.004454243928194046,-0.010091785341501236
1767621262350908000,16.998907958984375,0.04332542419433594,-0.02706698328256607,-0.01437351480126381
1767621262391021800,17.039021728515625,0.045719146728515625,-0.002961721271276474,-0.009474482387304306
1767621262431128800,17.07912890625,0.026561737060546875,-0.0167996846139431,-0.009835798293352127
1767621262471244300,17.119244384765626,0.028955459594726562,-0.016622617840766907,0.009530123323202133
1767621262511359500,17.159359375,0.026563644409179688,-0.009559448808431625,0.0002239234745502472
1767621262551478500,17.199478515625,0.04572105407714844,-0.019781988114118576,-0.001929212361574173
1767621262591599600,17.239599609375,0.03135490417480469,-0.012544989585876465,0.012288039550185204
1767621262631726300,17.279726318359376,0.04092884063720703,-0.014696817845106125,-0.009739574044942856
1767621262671832000,17.31983203125,0.04093170166015625,-0.010057084262371063,-0.013882320374250412
1767621262711944000,17.35994384765625,0.03135204315185547,-0.011964555829763412,0.009822744876146317
1767621262732002600,17.38000244140625,0.03374671936035156,-0.005094371736049652,0.00012216344475746155
1767621262752067600,17.400067626953124,0.04332542419433594,-0.017220601439476013,-0.004425205290317535
1767621262792189700,17.440189697265627,0.040935516357421875,-0.017352774739265442,0.0032913796603679657
1767621262832315400,17.4803154296875,0.033753395080566406,-0.003437180072069168,0.010519057512283325
1767621262872433400,17.520433349609377,0.03854084014892578,-0.010344631969928741,-0.006398271769285202
1767621262912550400,17.56055029296875,0.04333209991455078,-0.0010700635612010956,-0.001093834638595581
1767621262952674300,17.60067431640625,0.028975486755371094,-0.007041942328214645,-0.008136115968227386
1767621262992806400,17.640806396484376,0.026578903198242188,-0.00690368190407753,0.0060853660106658936
1767621263032925700,17.68092578125,0.03614997863769531,-0.030264325439929962,0.002841055393218994
1767621263073041200,17.721041259765624,0.028964996337890625,-0.011019598692655563,0.012263068929314613
1767621263093099300,17.741099365234376,0.02178192138671875,-0.013318788260221481,0.00720185786485672
1767621263113168600,17.761168701171876,0.038539886474609375,-0.01323387399315834,-0.0000018067657947540283
1767621263153292000,17.8012919921875,0.04332733154296875,-0.017883192747831345,-0.011914368718862534
1767621263193416000,17.841416015625,0.04093170166015625,-0.025070348754525185,0.006844557821750641
1767621263233544400,17.88154443359375,0.04332447052001953,-0.012983191758394241,0.02313871495425701
1767621263273673700,17.921673828125,0.040927886962890625,-0.022228114306926727,0.003947224467992783
1767621263313794600,17.961794677734375,0.04571056365966797,-0.018997572362422943,-0.013074595481157303
1767621263353919200,18.001919189453126,0.0385284423828125,-0.01185939833521843,-0.01527588814496994
1767621263394078000,18.042077880859374,0.03852653503417969,-0.013959657400846481,-0.017883796244859695
1767621263434205400,18.082205322265626,0.02416229248046875,-0.013865455985069275,0.004102449864149094
1767621263474337300,18.122337158203123,0.043320655822753906,0.002545725554227829,-0.009587746113538742
1767621263514470000,18.162469970703125,0.04810523986816406,0.0004513449966907501,-0.00520135834813118
1767621263534533600,18.18253369140625,0.03852653503417969,0.0006908178329467773,0.021014239639043808
1767621263554603500,18.202603515625,0.03373908996582031,-0.004096608608961105,-0.02674805372953415
1767621263594724600,18.242724609375,0.04570293426513672,-0.007920924574136734,-0.003505181521177292
1767621263634846200,18.28284619140625,0.036124229431152344,-0.005435880273580551,-0.006277319043874741
1767621263674974200,18.32297412109375,0.048094749450683594,-0.012393511831760406,0.0012392885982990265
1767621263715097000,18.36309716796875,0.036118507385253906,0.01727542281150818,-0.0014728792011737823
1767621263755219000,18.403218994140627,0.03372478485107422,0.0006781183183193207,-0.0032478943467140198
1767621263775275000,18.42327490234375,0.04091072082519531,-0.016282130032777786,-0.0028736405074596405
1767621263795339800,18.44333984375,0.05287933349609375,-0.004193175584077835,-0.0008437260985374451
1767621263835467000,18.483467041015626,0.02175426483154297,-0.00670585036277771,0.020345132797956467
1767621263855519000,18.50351904296875,0.03372478485107422,-0.01864536479115486,-0.0155634805560112
1767621263875581200,18.523581298828127,0.04329967498779297,-0.006285872310400009,-0.01793815940618515
1767621263915700200,18.5637001953125,0.03372478485107422,-0.013662062585353851,-0.012757107615470886
1767621263955822600,18.603822509765624,0.033722877502441406,-0.00851190835237503,-0.008088022470474243
1767621263995941400,18.64394140625,0.03611278533935547,-0.005156852304935455,-0.005812902003526688
1767621264036057000,18.68405712890625,0.03610992431640625,-0.005036935210227966,-0.015870951116085052
1767621264076173000,18.724173095703126,0.04089069366455078,-0.009226255118846893,0.0022008344531059265
1767621264116306000,18.764305908203124,0.05046844482421875,-0.00904902070760727,-0.021432559937238693
1767621264156417500,18.80441748046875,0.0289154052734375,0.006113272160291672,-0.0287729874253273
1767621264176476200,18.82447607421875,0.036098480224609375,0.0013402625918388367,-0.007387589663267136
1767621264196538400,18.844538330078127,0.03370189666748047,-0.003435976803302765,-0.007569894194602966
1767621264236658000,18.884657958984373,0.048069000244140625,0.003242228180170059,-0.01259765774011612
1767621264276766200,18.92476611328125,0.04327869415283203,-0.018091486766934395,-0.01042766124010086
1767621264316876300,18.964876220703125,0.03370189666748047,-0.008790671825408936,-0.010851647704839706
1767621264336918800,18.984918701171875,0.03849220275878906,-0.011359665542840958,-0.010638345032930374
1767621264356977400,19.004977294921876,0.03609752655029297,0.0028076358139514923,-0.018190156668424606
1767621264397095200,19.04509521484375,0.04327964782714844,0.014446549117565155,-0.013842090964317322
1767621264437223000,19.085222900390626,0.03849220275878906,-0.005435936152935028,-0.00014455243945121765
1767621264477343700,19.12534375,0.0337066650390625,-0.024589624255895615,0.005126375705003738
1767621264517457000,19.165456787109374,0.02892017364501953,-0.01345955953001976,-0.007082197815179825
1767621264557573000,19.205572998046875,0.043292999267578125,-0.007118668407201767,-0.001574091613292694
1767621264597675000,19.245675048828126,0.04569053649902344,-0.012503363192081451,0.0008258707821369171
1767621264637794300,19.285794189453124,0.043295860290527344,0.0016227439045906067,-0.013946998864412308
1767621264677911300,19.325911376953126,0.050475120544433594,-0.017184991389513016,-0.0024759694933891296
1767621264718028500,19.366028564453124,0.03371429443359375,-0.005061361938714981,0.0022429972887039185
1767621264758149400,19.4061494140625,0.04089832305908203,-0.005202773958444595,-0.02162402868270874
1767621264798265900,19.446265869140625,0.043290138244628906,-0.009846452623605728,-0.014748036861419678
1767621264838372000,19.4863720703125,0.04089641571044922,-0.014297526329755783,-0.004676889628171921
1767621264878490400,19.526490478515626,0.03849983215332031,0.010168846696615219,-0.014107909053564072
1767621264898548500,19.546548583984375,0.045680999755859375,0.003224935382604599,-0.006985519081354141
1767621264918611500,19.566611572265625,0.04567909240722656,0.005858667194843292,-0.002439800649881363
1767621264958738000,19.606738037109373,0.03610038757324219,-0.017963435500860214,-0.0005262456834316254
1767621264998859300,19.646859375,0.04807090759277344,-0.0009623803198337555,-0.012134850025177002
1767621265038974700,19.686974609375,0.028914451599121094,0.001946922391653061,-0.019314132630825043
1767621265079083800,19.727083740234374,0.036098480224609375,-0.01727874204516411,-0.004912152886390686
1767621265119195000,19.76719482421875,0.03849220275878906,-0.00047829002141952515,-0.009435787796974182
1767621265139246000,19.78724609375,0.04806709289550781,-0.002511899918317795,-0.011948712170124054
1767621265159303400,19.807303466796874,0.031310081481933594,-0.014798983931541443,-0.006997566670179367
1767621265179346700,19.8273466796875,0.043277740478515625,-0.002228397876024246,-0.00699697807431221
1767621265199401700,19.847401611328124,0.03130817413330078,0.0045927539467811584,-0.000055637210607528687
1767621265239502600,19.887502685546874,0.031310081481933594,0.0019903481006622314,-0.009466324001550674
1767621265279618000,19.9276181640625,0.052855491638183594,-0.007905948907136917,-0.007862191647291183
1767621265319728400,19.967728271484376,0.04567909240722656,0.005499809980392456,-0.007737770676612854
1767621265359842000,20.007842041015625,0.03370857238769531,-0.004288665950298309,-0.022145308554172516
1767621265379900000,20.02789990234375,0.045680999755859375,0.0004993043839931488,0.00443011149764061
1767621265399961300,20.04796142578125,0.036106109619140625,-0.014228064566850662,-0.00047994405031204224
1767621265420012300,20.06801220703125,0.048073768615722656,-0.0017778612673282623,-0.00048055499792099
1767621265440073700,20.08807373046875,0.03131580352783203,-0.002016894519329071,0.008978307247161865
1767621265480188400,20.1281884765625,0.031317710876464844,0.009113669395446777,-0.010896001011133194
1767621265520297500,20.16829736328125,0.03371143341064453,0.011146221309900284,0.010292109102010727
1767621265560398800,20.20839892578125,0.04329490661621094,-0.011241331696510315,-0.01065242663025856
1767621265600511200,20.24851123046875,0.04090309143066406,-0.004487518221139908,-0.013124477118253708
1767621265640629200,20.288629150390626,0.03371906280517578,0.009806912392377853,-0.011058174073696136
1767621265660685000,20.30868505859375,0.043295860290527344,-0.014134678989648819,0.015278685837984085
1767621265680754000,20.32875390625,0.0289306640625,-0.00958668440580368,-0.013812322169542313
1767621265720873500,20.36887353515625,0.036113739013671875,0.009569056332111359,-0.0020786263048648834
1767621265760986000,20.408986083984374,0.036113739013671875,-0.019464820623397827,-0.014360509812831879
1767621265801090600,20.449090576171876,0.04808330535888672,-0.012275844812393188,-0.009955447167158127
1767621265841201700,20.48920166015625,0.038509368896484375,-0.022490233182907104,-0.002918284386396408
1767621265881317600,20.529317626953127,0.045688629150390625,-0.010171663016080856,-0.012773524969816208
1767621265921436200,20.569436279296873,0.038504600524902344,-0.009929608553647995,-0.0010919123888015747
1767621265961550600,20.609550537109374,0.043292999267578125,0.0018077753484249115,-0.0036608465015888214
1767621266001667800,20.649667724609376,0.031322479248046875,-0.014893367886543274,-0.018090322613716125
1767621266041773600,20.689773681640624,0.05287456512451172,-0.018116042017936707,-0.013074249029159546
1767621266061825000,20.709824951171875,0.033721923828125,-0.008563771843910217,-0.024762209504842758
1767621266081881900,20.7298818359375,0.03372383117675781,-0.011101316660642624,-0.012645579874515533
1767621266121998800,20.769998779296873,0.038509368896484375,-0.022386901080608368,-0.026657532900571823
1767621266162093800,20.81009375,0.03371906280517578,-0.005516115576028824,-0.007751587778329849
1767621266202211600,20.850211669921876,0.03372001647949219,0.0016647353768348694,-0.021779194474220276
1767621266242328000,20.890328125,0.03371715545654297,-0.007468190044164658,0.00434352271258831
1767621266282462500,20.93046240234375,0.03850555419921875,-0.0001834779977798462,-0.0002981126308441162
1767621266322568200,20.970568115234375,0.03851032257080078,-0.02015106752514839,-0.01219790056347847
1767621266362687700,21.010687744140625,0.04568958282470703,0.014060091227293015,0.011577798053622246
1767621266402809000,21.05080908203125,0.040902137756347656,-0.017421960830688477,-0.012478601187467575
1767621266442927900,21.090927978515627,0.04089641571044922,0.004727471619844437,-0.0013490580022335052
1767621266462980600,21.110980712890626,0.03850078582763672,-0.0024555251002311707,0.005712997168302536
1767621266483040800,21.131040771484376,0.0432891845703125,-0.019092567265033722,0.010745430365204811
1767621266523146000,21.17114599609375,0.03610420227050781,-0.01861146092414856,-0.013498395681381226
1767621266563264000,21.211263916015625,0.0432891845703125,-0.009450357407331467,-0.03007258102297783
1767621266583321600,21.231321533203126,0.03371429443359375,-0.024126922711730003,-0.01793646439909935
1767621266603385900,21.2513857421875,0.045683860778808594,-0.01902266964316368,-0.01810537651181221
1767621266643512000,21.291511962890624,0.03371143341064453,-0.013740554451942444,-0.008146021515130997
1767621266683646000,21.33164599609375,0.038498878479003906,0.012804422527551651,-0.01267562061548233
1767621266723768600,21.3717685546875,0.03370857238769531,0.0037444978952407837,-0.010234422981739044
1767621266763881700,21.4118818359375,0.048069000244140625,-0.024280410259962082,0.003977043554186821
1767621266804003800,21.45200390625,0.036095619201660156,-0.014180440455675125,-0.010393906384706497
1767621266844132900,21.4921328125,0.03609752655029297,-0.019223615527153015,-0.00556604191660881
1767621266864193500,21.512193603515627,0.031302452087402344,-0.01836211606860161,-0.01802423968911171
1767621266884267500,21.532267578125,0.028906822204589844,-0.011044584214687347,-0.008581548929214478
1767621266924394200,21.572394287109375,0.0360870361328125,-0.0012959875166416168,-0.00699751079082489
1767621266964520700,21.612520751953124,0.04326915740966797,-0.010864540934562683,-0.011583566665649414
1767621267004631300,21.65263134765625,0.05284595489501953,-0.013347428292036057,-0.009432215243577957
1767621267044743700,21.69274365234375,0.03608989715576172,-0.01362079381942749,-0.030430633574724197
1767621267064799200,21.71279931640625,0.04088020324707031,-0.016140300780534744,-0.02538158744573593
1767621267084861700,21.73286181640625,0.03130340576171875,0.003186836838722229,-0.008340612053871155
1767621267124983300,21.7729833984375,0.03609275817871094,-0.004033111035823822,-0.015162494033575058
1767621267165100300,21.813100341796876,0.055243492126464844,-0.013102561235427856,-0.005687713623046875
1767621267205235200,21.853235107421874,0.026514053344726562,-0.0010256431996822357,-0.009954959154129028
1767621267245357000,21.893357177734377,0.03608894348144531,-0.0006645806133747101,-0.005525384098291397
1767621267265416000,21.913416015625,0.043270111083984375,-0.022156666964292526,-0.020075339823961258
1767621267285482200,21.933482177734376,0.031296730041503906,-0.0071453675627708435,-0.00554618239402771
1767621267325620000,21.973619873046875,0.043267250061035156,-0.01207754760980606,-0.01270417869091034
1767621267365737700,22.01373779296875,0.026511192321777344,-0.0005709156394004822,-0.012667417526245117
1767621267405865000,22.053864990234374,0.02890300750732422,-0.02413167804479599,-0.01254822313785553
1767621267445985000,22.093985107421876,0.03130149841308594,-0.0031373053789138794,-0.00041459500789642334
1767621267486099500,22.134099365234373,0.04327392578125,0.003932919353246689,-0.004919033497571945
1767621267526224000,22.174223876953125,0.03848743438720703,-0.006083056330680847,-0.009616117924451828
1767621267566348800,22.214348876953125,0.033705711364746094,0.002541903406381607,-0.016214687377214432
1767621267586402800,22.23440283203125,0.04568004608154297,-0.009601801633834839,-0.015848860144615173
1767621267606466600,22.254466552734375,0.03849506378173828,-0.009425662457942963,0.003009520471096039
1767621267646580000,22.294580078125,0.043285369873046875,0.00208393856883049,-0.0018137693405151367
1767621267686686200,22.334686279296875,0.03132152557373047,0.0008848011493682861,-0.008993241935968399
1767621267726783000,22.374782958984376,0.019347190856933594,-0.013360507786273956,0.00022242218255996704
1767621267746837200,22.394837158203124,0.031314849853515625,-0.012879759073257446,0.007047269493341446
1767621267766903000,22.414903076171875,0.04568004608154297,0.006032228469848633,-0.0032532401382923126
1767621267807023900,22.45502392578125,0.03849983215332031,-0.0280790813267231,-0.01526707410812378
1767621267847142400,22.495142333984376,0.045683860778808594,0.005095876753330231,-0.008174516260623932
1767621267867196700,22.51519677734375,0.045683860778808594,-0.009464267641305923,-0.010870952159166336
1767621267887257000,22.535257080078125,0.03610801696777344,-0.019325867295265198,-0.0014839805662631989
1767621267927367200,22.5753671875,0.04568672180175781,-0.012208547443151474,-0.010751243680715561
1767621267967473000,22.615472900390625,0.040900230407714844,0.006628669798374176,-0.0007804669439792633
1767621268007583200,22.655583251953125,0.036110877990722656,-0.0049385689198970795,-0.027201786637306213
1767621268027636200,22.67563623046875,0.04568767547607422,-0.004865560680627823,-0.019842103123664856
1767621268047694800,22.69569482421875,0.055267333984375,-0.012427154928445816,-0.009972523897886276
1767621268087806500,22.735806396484374,0.040904998779296875,-0.015336781740188599,-0.007429923862218857
1767621268127921400,22.77592138671875,0.040909767150878906,-0.011325336992740631,0.002141851931810379
1767621268168034000,22.816033935546876,0.043303489685058594,-0.0162355974316597,-0.004964232444763184
1767621268188080400,22.836080322265627,0.02414989471435547,-0.0017949007451534271,-0.031419575214385986
1767621268208137700,22.8561376953125,0.04809284210205078,-0.0042351894080638885,-0.02645956352353096
1767621268248246500,22.89624658203125,0.04091167449951172,-0.030699685215950012,-0.004669595509767532
1767621268288363800,22.93636376953125,0.040909767150878906,-0.0014998875558376312,-0.018955577164888382
1767621268328481500,22.9764814453125,0.04569530487060547,-0.022701889276504517,-0.011952001601457596
1767621268368594700,23.0165947265625,0.040902137756347656,-0.01754279062151909,-0.005542173981666565
1767621268408718000,23.056718017578124,0.05526924133300781,-0.02962442860007286,-0.026840094476938248
1767621268448895700,23.096895751953124,0.03610706329345703,0.012121990323066711,-0.01781194657087326
1767621268489007600,23.137007568359376,0.02892780303955078,0.055345892906188965,-0.09356187283992767
1767621268529129000,23.17712890625,0.05760383605957031,-0.04027644917368889,0.08149095624685287
1767621268569257000,23.217257080078124,0.052819252014160156,0.1265982985496521,-0.09520581364631653
1767621268609385500,23.257385498046876,0.05282783508300781,-0.07626776397228241,-0.10157205164432526
1767621268649518600,23.2975185546875,0.031273841857910156,-0.0390968956053257,0.16872388124465942
1767621268689638000,23.337637939453124,0.03126335144042969,0.10806716233491898,-0.05551212280988693
1767621268729759700,23.377759765625,0.05044269561767578,-0.06226092949509621,-0.1380603015422821
1767621268769887500,23.417887451171875,0.04564094543457031,-0.04508693516254425,0.14919111132621765
1767621268810008000,23.458008056640626,0.050434112548828125,0.1313449740409851,-0.004197455942630768
1767621268850122200,23.498122314453123,0.06240653991699219,-0.15406596660614014,-0.16179542243480682
1767621268890241300,23.5382412109375,0.02889728546142578,0.15605758130550385,0.1314941942691803
1767621268930388700,23.578388671875,0.048043251037597656,-0.12674479186534882,0.0023496970534324646
1767621268970505500,23.61850537109375,0.050445556640625,0.07456846535205841,-0.16316168010234833
1767621268990563600,23.6385634765625,0.03129768371582031,0.038257963955402374,-0.015961043536663055
1767621269010629000,23.658629150390624,0.043270111083984375,-0.00036150962114334106,0.10125422477722168
1767621269050758700,23.698758544921876,0.038478851318359375,0.0018318556249141693,0.021304579451680183
1767621269090881500,23.738881591796876,0.052840232849121094,-0.07588289678096771,-0.10500714927911758
1767621269110941000,23.75894091796875,0.050449371337890625,0.10122016817331314,-0.044554516673088074
1767621269131004700,23.779004638671875,0.02651500701904297,0.15703508257865906,0.027479443699121475
1767621269171146800,23.819146728515626,0.05045032501220703,-0.215760737657547,0.05037050321698189
1767621269211260400,23.859260498046876,0.03607749938964844,0.14230427145957947,-0.062419343739748
1767621269251374600,23.89937451171875,0.03608894348144531,-0.02972487360239029,0.02931305207312107
1767621269291488500,23.939488525390626,0.03368854522705078,-0.042925652116537094,0.045672230422496796
1767621269331598300,23.979598388671874,0.028899192810058594,0.043567802757024765,-0.014219138771295547
1767621269351654700,23.999654541015627,0.033690452575683594,0.052657634019851685,-0.0642632246017456
1767621269371719700,24.0197197265625,0.03369331359863281,0.04236414656043053,-0.047358304262161255
1767621269411826200,24.059826171875,0.021719932556152344,-0.11026512086391449,0.04573996737599373
1767621269451935500,24.099935546875,0.050445556640625,0.1009402945637703,0.021233150735497475
1767621269492043800,24.140043701171876,0.040879249572753906,-0.04444253444671631,-0.08822287619113922
1767621269532144600,24.18014453125,0.03608989715576172,-0.03628874570131302,0.05389877036213875
1767621269572253200,24.220253173828127,0.04087638854980469,0.05444619059562683,0.029151370748877525
1767621269592301800,24.2403017578125,0.03608417510986328,-0.0479060634970665,-0.06685750186443329
1767621269612358700,24.260358642578126,0.02411365509033203,-0.04982162266969681,-0.09246193617582321
1767621269652471000,24.300470947265627,0.028903961181640625,0.04111907631158829,0.05412697419524193
1767621269692587500,24.34058740234375,0.02171802520751953,-0.004261042922735214,0.029312873259186745
1767621269732700200,24.3807001953125,0.040871620178222656,-0.018458452075719833,-0.08298969268798828
1767621269772818000,24.42081787109375,0.028902053833007812,-0.0064542777836322784,0.039626192301511765
1767621269792871400,24.440871337890623,0.04566192626953125,0.07716144621372223,0.09692919254302979
1767621269812930600,24.4609306640625,0.014535903930664062,0.017182983458042145,0.04142100736498833
1767621269853042000,24.5010419921875,0.043265342712402344,-0.0780983567237854,-0.0804564505815506
1767621269893145300,24.541145263671876,0.038478851318359375,0.09429903328418732,0.013453640043735504
1767621269933255000,24.5812548828125,0.031296730041503906,-0.11432033032178879,0.03697485476732254
1767621269973368600,24.62136865234375,0.03368663787841797,0.041901104152202606,-0.04701480641961098
1767621269993420500,24.641420654296876,0.028898239135742188,0.06616465002298355,-0.020359884947538376
1767621270013480200,24.661480224609374,0.024107933044433594,-0.00793519988656044,0.022494947537779808
1767621270053585200,24.701585205078125,0.016922950744628906,-0.02876221016049385,0.008130237460136414
1767621270093689300,24.741689453125,0.03607177734375,-0.013726349920034409,-0.009166430681943893
1767621270133796400,24.78179638671875,0.036075592041015625,0.07140932977199554,-0.023482058197259903
1767621270153848000,24.80184814453125,0.02410602569580078,-0.04129417613148689,-0.001757148653268814
1767621270173919500,24.82191943359375,0.03846931457519531,-0.0819549411535263,0.019429951906204224
1767621270193976000,24.84197607421875,0.03607368469238281,-0.029142003506422043,0.011733472347259521
1767621270214037500,24.86203759765625,0.036072731018066406,0.07141447067260742,0.0067042335867881775
1767621270234092300,24.88209228515625,0.033679962158203125,0.06875591725111008,-0.02413707599043846
1767621270254163200,24.9021630859375,0.03128623962402344,-0.03399099409580231,-0.03352980315685272
1767621270294285800,24.942285888671876,0.024106979370117188,-0.01776272803544998,0.0029772259294986725
1767621270334397200,24.982397216796876,0.026503562927246094,0.017899788916110992,0.024582959711551666
1767621270374499800,25.022499755859375,0.03368091583251953,0.00889461487531662,-0.043116334825754166
1767621270414615300,25.062615234375,0.03607654571533203,-0.01059895008802414,0.021356767043471336
1767621270454733800,25.10273388671875,0.0384674072265625,0.0420725978910923,-0.007977291941642761
1767621270494860300,25.1428603515625,0.033682823181152344,-0.01817687228322029,-0.06984452903270721
1767621270514922500,25.162922607421876,0.03368568420410156,-0.04009508341550827,-0.02164478227496147
1767621270534987000,25.182987060546875,0.033687591552734375,0.026574060320854187,0.02163797803223133
1767621270575110700,25.223110595703126,0.04326820373535156,0.008967220783233643,0.00959576852619648
1767621270615224300,25.263224365234375,0.04087352752685547,-0.019945617765188217,-0.04807455092668533
1767621270655345700,25.303345703125,0.038478851318359375,0.013853602111339569,0.011785969138145447
1767621270675401500,25.3234013671875,0.028902053833007812,-0.010327327996492386,0.03812326118350029
1767621270695462000,25.3434619140625,0.031302452087402344,-0.018110573291778564,0.005208130925893784
1767621270735577900,25.383577880859374,0.03848075866699219,-0.005386725068092346,-0.0332396999001503
1767621270775691000,25.42369091796875,0.04566383361816406,0.018432293087244034,0.00969603843986988
1767621270795742500,25.443742431640626,0.038478851318359375,0.006583068519830704,0.028611989691853523
1767621270815804400,25.463804443359376,0.03608894348144531,-0.02993282675743103,0.012092269957065582
1767621270855913500,25.50391357421875,0.04326820373535156,0.011095922440290451,-0.026581209152936935
1767621270875971000,25.52397119140625,0.04326629638671875,0.05216760188341141,-0.04579046368598938
1767621270896035300,25.544035400390626,0.04087352752685547,0.03997054696083069,0.01655910350382328
1767621270936158200,25.584158203125,0.043265342712402344,-0.04855981469154358,0.011264987289905548
1767621270976282600,25.62428271484375,0.03368663787841797,0.03547857701778412,-0.0032206475734710693
1767621270996341800,25.644341796875,0.03368854522705078,0.023148678243160248,-0.00812792032957077
1767621271016408000,25.664407958984373,0.03608226776123047,-0.0005515553057193756,-0.015309445559978485
1767621271056529400,25.704529296875,0.03129386901855469,-0.0053385160863399506,0.018329858779907227
1767621271096640800,25.744640869140625,0.021718978881835938,0.02769932895898819,-0.008125647902488708
1767621271136754700,25.784754638671874,0.04566478729248047,0.022363834083080292,-0.03402465954422951
1767621271176941600,25.824941650390624,0.048058509826660156,-0.04010019078850746,0.011230327188968658
1767621271196997600,25.84499755859375,0.0360870361328125,-0.006221096962690353,0.025835953652858734
1767621271217064000,25.86506396484375,0.045662879943847656,0.005869399756193161,-0.0007421821355819702
1767621271257184800,25.905184814453126,0.04566192626953125,-0.02283082716166973,-0.0342937707901001
1767621271297305000,25.94530517578125,0.04326820373535156,-0.0037555471062660217,-0.005625888705253601
1767621271337418500,25.98541845703125,0.028900146484375,0.003670118749141693,-0.005863383412361145
1767621271377537800,26.025537841796876,0.043262481689453125,-0.010244298726320267,-0.03485119342803955
1767621271397593000,26.045593017578124,0.031294822692871094,-0.010635677725076675,-0.025057338178157806
1767621271417652500,26.065652587890625,0.04086875915527344,-0.012624964118003845,0.027405472472310066
1767621271457765000,26.10576513671875,0.048050880432128906,0.0013800300657749176,-0.006592895835638046
1767621271477822200,26.125822265625,0.040866851806640625,-0.007957842200994492,-0.014136306941509247
1767621271497885700,26.1458857421875,0.026502609252929688,-0.012948635965585709,-0.02842988446354866
1767621271538003000,26.1860029296875,0.036080360412597656,0.012961454689502716,0.012182086706161499
1767621271578108200,26.226108154296874,0.028900146484375,-0.020794950425624847,-0.004214346408843994
1767621271618227200,26.266227294921876,0.03368663787841797,-0.0058178529143333435,-0.02323884889483452
1767621271638285800,26.286285888671873,0.036078453063964844,0.0040544308722019196,-0.011638924479484558
1767621271658351400,26.306351318359376,0.033684730529785156,0.010996628552675247,0.00751521997153759
1767621271698477800,26.346477783203124,0.04805278778076172,-0.03020685911178589,-0.018884610384702682
1767621271738605600,26.38660546875,0.043265342712402344,0.0008336827158927917,-0.023342706263065338
1767621271778728400,26.426728515625,0.03129768371582031,0.005309339612722397,0.01073307916522026
1767621271818850800,26.466850830078126,0.036087989807128906,-0.03589780628681183,0.0009316690266132355
1767621271858963200,26.506963134765623,0.04566001892089844,0.01042548194527626,0.0031038708984851837
1767621271899079000,26.547078857421877,0.03129386901855469,0.0152156762778759,-0.01174025610089302
1767621271939200300,26.5872001953125,0.048050880432128906,-0.02770436368882656,-0.004689119756221771
1767621271979315200,26.627315185546873,0.048048973083496094,0.008570268750190735,0.0023761019110679626
1767621272019427300,26.66742724609375,0.02889537811279297,-0.020761098712682724,-0.003012940287590027
1767621272059554300,26.70755419921875,0.031287193298339844,-0.008256867527961731,0.013380525633692741
1767621272099661600,26.74766162109375,0.040863990783691406,0.013048060238361359,-0.0011067353188991547
1767621272139775700,26.787775634765627,0.040863037109375,-0.008022814989089966,-0.0272628553211689
1767621272179886300,26.82788623046875,0.038471221923828125,-0.015682900324463844,0.018386149778962135
1767621272219995100,26.8679951171875,0.040863037109375,0.016043640673160553,-0.01992107182741165
1767621272260105200,26.908105224609375,0.03367805480957031,-0.02942827343940735,-0.010811790823936462
1767621272300213000,26.948212890625,0.043251991271972656,0.013789352029561996,0.01732047088444233
1767621272340333000,26.9883330078125,0.03606700897216797,-0.009793810546398163,-0.007102265954017639
1767621272360388600,27.008388671875,0.040856361389160156,-0.007624395191669464,-0.04282310977578163
1767621272380451300,27.028451416015624,0.026493072509765625,0.016057293862104416,-0.014108087867498398
1767621272420566500,27.06856640625,0.04085826873779297,0.0111447274684906,0.000301409512758255
1767621272460683500,27.10868359375,0.02888011932373047,0.000012129545211791992,-0.010119456797838211
1767621272500801000,27.148801025390625,0.03845405578613281,-0.008906383067369461,-0.02203557640314102
1767621272520881400,27.16888134765625,0.03605937957763672,0.008294176310300827,-0.017238713800907135
1767621272540942600,27.188942626953125,0.0384521484375,0.010756358504295349,-0.0076739005744457245
1767621272581052000,27.229052001953125,0.0360565185546875,-0.01510130986571312,0.004173213616013527
1767621272621159400,27.269159423828125,0.03366374969482422,0.0035371556878089905,-0.029396846890449524
1767621272641207800,27.289207763671875,0.02408313751220703,0.028157003223896027,-0.005836568772792816
1767621272661268200,27.309268310546877,0.03365898132324219,-0.005362216383218765,-0.001169055700302124
1767621272701373700,27.349373779296876,0.036052703857421875,-0.01462872326374054,-0.027453403919935226
1767621272741482000,27.38948193359375,0.033659934997558594,0.016431938856840134,-0.03185386583209038
1767621272781610200,27.4296103515625,0.031264305114746094,0.007105749100446701,-0.014992933720350266
1767621272821721300,27.469721435546877,0.03844738006591797,0.0069596171379089355,-0.015088561922311783
1767621272861838800,27.5098388671875,0.033657073974609375,0.03333388268947601,-0.010683692991733551
1767621272901953500,27.54995361328125,0.03845024108886719,-0.003053419291973114,-0.010210040956735611
1767621272942067500,27.5900673828125,0.03605461120605469,-0.0002863556146621704,0.006860002875328064
1767621272982176800,27.6301767578125,0.03126716613769531,0.01168723776936531,-0.0025944188237190247
1767621273022280400,27.670280517578124,0.03365802764892578,-0.006921887397766113,-0.01482384279370308
1767621273062386000,27.710385986328124,0.031264305114746094,0.014385666698217392,-0.0052460916340351105
1767621273082444300,27.7304443359375,0.0360565185546875,0.023444298654794693,0.004343898966908455
1767621273102495200,27.7504951171875,0.01929759979248047,0.004241574555635452,-0.016797717660665512
1767621273142598000,27.790597900390626,0.02408599853515625,-0.005335450172424316,-0.014522850513458252
1767621273182702000,27.8307021484375,0.03605937957763672,0.0013662278652191162,-0.0048266686499118805
1767621273222810000,27.87081005859375,0.03366279602050781,0.00615406408905983,-0.014763109385967255
1767621273262919700,27.910919677734373,0.03366565704345703,-0.003749452531337738,-0.023955348879098892
1767621273303039000,27.9510390625,0.03127574920654297,0.014567304402589798,0.01407153531908989
1767621273343168300,27.991168212890624,0.036065101623535156,-0.0193927064538002,-0.019510991871356964
1767621273363224000,28.01122412109375,0.02888202667236328,-0.009630601853132248,-0.03134265914559364
1767621273383286800,28.031286865234375,0.036065101623535156,-0.0026411041617393494,-0.005269460380077362
1767621273423400200,28.071400146484375,0.03845977783203125,-0.01468665711581707,-0.00513714924454689
1767621273463514400,28.111514404296877,0.03367042541503906,-0.019345391541719437,-0.019521620124578476
1767621273503620600,28.15162060546875,0.04324913024902344,0.009459935128688812,-0.01186109334230423
1767621273543732200,28.191732177734377,0.03367328643798828,-0.00035504624247550964,-0.004663530737161636
1767621273583853000,28.23185302734375,0.03606986999511719,-0.008019212633371353,-0.0093325674533844
1767621273603905000,28.251905029296875,0.02888774871826172,0.003852076828479767,-0.02122635766863823
1767621273623970300,28.27197021484375,0.03367900848388672,0.0012282580137252808,-0.01601003110408783
1767621273664091100,28.312091064453124,0.04804515838623047,-0.016132349148392677,-0.00930708646774292
1767621273684144400,28.332144287109376,0.038468360900878906,-0.004162169992923737,0.0026628226041793823
1767621273704206000,28.3522060546875,0.036075592041015625,0.005053456872701645,-0.019005384296178818
1767621273744307700,28.3923076171875,0.03368186950683594,0.0075506530702114105,-0.03050985187292099
1767621273784419600,28.432419677734377,0.036080360412597656,-0.014709506183862686,-0.015990175306797028
1767621273804479000,28.45247900390625,0.033687591552734375,0.0018249563872814178,-0.01835787296295166
1767621273824538600,28.47253857421875,0.04565620422363281,-0.005219053477048874,-0.0019943639636039734
1767621273864655000,28.512655029296877,0.05044364929199219,-0.012251462787389755,-0.018790636211633682
1767621273884710100,28.532710205078125,0.04326438903808594,-0.010029967874288559,-0.034946005791425705
1767621273904771000,28.55277099609375,0.033690452575683594,-0.0057762861251831055,-0.010809354484081268
1767621273944885800,28.5928857421875,0.04087352752685547,0.003468114882707596,0.0007200650870800018
1767621273985029600,28.633029541015624,0.048058509826660156,-0.003951173275709152,-0.025151610374450684
1767621274025145000,28.67314501953125,0.04087543487548828,-0.008758287876844406,-0.006215158849954605
1767621274065268700,28.713268798828125,0.0312957763671875,0.003333505243062973,-0.0021443143486976624
1767621274105387500,28.753387451171875,0.040877342224121094,0.005009599030017853,-0.004173688590526581
1767621274125444000,28.773444091796875,0.04566478729248047,-0.004567209631204605,0.0004948005080223083
1767621274145508000,28.793508056640626,0.036087989807128906,-0.0021742694079875946,-0.01387215405702591
1767621274165564700,28.813564697265626,0.040877342224121094,-0.004568040370941162,-0.011357434093952179
1767621274185635000,28.833635009765626,0.052849769592285156,-0.011991545557975769,-0.0038134753704071045
1767621274225803000,28.873802978515624,0.06482315063476562,-0.007520120590925217,-0.0300704687833786
1767621274265912800,28.913912841796876,0.03369617462158203,0.007134940475225449,-0.0038882046937942505
1767621274285970000,28.933969970703124,0.031304359436035156,0.004385907202959061,-0.018085598945617676
1767621274306035200,28.95403515625,0.02651691436767578,-0.02446281909942627,0.008012756705284119
1767621274346164500,28.99416455078125,0.02891254425048828,-0.026843158528208733,-0.008006379008293152
1767621274386289400,29.034289306640623,0.028913497924804688,0.011425115168094635,-0.01967218518257141
1767621274426410200,29.07441015625,0.03849220275878906,-0.021843325346708298,0.009609982371330261
1767621274466521600,29.114521484375,0.036103248596191406,-0.0033170469105243683,-0.008930116891860962
1767621274506640000,29.154639892578125,0.036103248596191406,-0.008184492588043213,-0.0019502900540828705
1767621274546768600,29.1947685546875,0.0337066650390625,-0.02452920749783516,-0.004286572337150574
1767621274586896400,29.234896484375,0.03849029541015625,-0.004799313843250275,0.007278991863131523
1767621274627020300,29.275020263671873,0.02891254425048828,0.00022898614406585693,-0.009478908032178879
1767621274647087400,29.29508740234375,0.03130626678466797,-0.011721868067979813,-0.014489520341157913
1767621274667146000,29.31514599609375,0.03369903564453125,0.0027633868157863617,0.002148829400539398
1767621274687194600,29.335194580078124,0.043274879455566406,0.0030027255415916443,-0.01939956471323967
1767621274707259000,29.3552587890625,0.05524158477783203,0.018209222704172134,-0.0100652314722538
1767621274747377200,29.395377197265624,0.038481712341308594,-0.005731739103794098,-0.014612384140491486
1767621274767433200,29.41543310546875,0.03130054473876953,0.0013323836028575897,-0.016814690083265305
1767621274787496400,29.435496337890626,0.04087638854980469,-0.0009405277669429779,0.009161438792943954
1767621274827611600,29.475611572265624,0.04566001892089844,-0.005130644887685776,-0.015022579580545425
1767621274867730000,29.51572998046875,0.02889537811279297,0.007318146526813507,-0.006148394197225571
1767621274907850800,29.555850830078125,0.038474082946777344,0.00213516503572464,-0.008636221289634705
1767621274947961000,29.595961181640625,0.03847694396972656,0.006420459598302841,-0.015761788934469223
1767621274968016000,29.616015869140625,0.03368854522705078,-0.010218199342489243,0.006026981398463249
1767621274988077000,29.6360771484375,0.04566478729248047,-0.010803285986185074,-0.02229209989309311
1767621275028195800,29.67619580078125,0.04566478729248047,0.020203489810228348,-0.010316107422113419
1767621275068315000,29.71631494140625,0.04326629638671875,-0.015348352491855621,-0.0014601945877075195
1767621275108442000,29.756442138671876,0.026506423950195312,-0.001100149005651474,-0.006725888699293137
1767621275148556000,29.79655615234375,0.043267250061035156,0.005720898509025574,-0.011395972222089767
1767621275188696000,29.836696044921876,0.045660972595214844,-0.0066102854907512665,-0.004932902753353119
1767621275228808400,29.876808349609377,0.04566192626953125,-0.0020613744854927063,-0.0074443817138671875
1767621275248869400,29.896869384765626,0.02411174774169922,-0.004306640475988388,-0.014919605106115341
1767621275268926200,29.91692626953125,0.03848075866699219,0.000019799917936325073,-0.012107059359550476
1767621275288974800,29.936974853515625,0.031299591064453125,-0.009769942611455917,-0.012173697352409363
1767621275309035000,29.957034912109375,0.03848075866699219,-0.004620417952537537,0.00003805384039878845
1767621275329084400,29.97708447265625,0.03608512878417969,-0.006773602217435837,-0.009776793420314789
1767621275349145600,29.9971455078125,0.03369617462158203,-0.00043306127190589905,0.00040324777364730835
1767621275369201400,30.017201416015624,0.028906822204589844,-0.005102384835481644,0.00016225874423980713
1767621275389266000,30.037265869140626,0.03608989715576172,-0.0005531646311283112,-0.016956020146608353
1767621275429375000,30.077375,0.043270111083984375,-0.01225152239203453,-0.019659373909235
1767621275449432300,30.097432373046875,0.04326820373535156,-0.007303491234779358,-0.012651097029447556
1767621275469499100,30.1174990234375,0.04087352752685547,-0.021579720079898834,-0.01984409987926483
1767621275509622500,30.15762255859375,0.04565906524658203,-0.01388862356543541,-0.027254845947027206
1767621275549741300,30.1977412109375,0.03129100799560547,-0.010876037180423737,-0.012874286621809006
1767621275569802200,30.21780224609375,0.038471221923828125,0.015612546354532242,-0.01059543713927269
1767621275589867500,30.237867431640623,0.026498794555664062,-0.008161734789609909,-0.020493749529123306
1767621275609927400,30.257927490234376,0.043257713317871094,0.0015558190643787384,-0.0012602880597114563
1767621275629994500,30.277994384765623,0.03128623962402344,0.006585840135812759,-0.01351993903517723
1767621275670146000,30.31814599609375,0.036078453063964844,-0.003399807959794998,-0.02213415876030922
1767621275690202600,30.33820263671875,0.045658111572265625,-0.006348509341478348,-0.012555994093418121
1767621275710267100,30.35826708984375,0.038478851318359375,0.005170170217752457,-0.014573756605386734
1767621275750390800,30.398390869140623,0.03847694396972656,0.0006483644247055054,-0.0001887492835521698
1767621275790512400,30.438512451171874,0.048050880432128906,0.008555438369512558,-0.007485393434762955
1767621275830636300,30.47863623046875,0.036075592041015625,0.00446338951587677,0.0018817596137523651
1767621275870756600,30.518756591796876,0.038468360900878906,-0.002599816769361496,-0.014998063445091248
1767621275910866400,30.558866455078125,0.03129005432128906,0.02569599449634552,-0.002694457769393921
1767621275950979800,30.598979736328126,0.03607463836669922,-0.0023123659193515778,-0.019701018929481506
1767621275971037400,30.619037353515626,0.03128623962402344,-0.011864498257637024,-0.0052452534437179565
1767621275991103200,30.639103271484377,0.04325580596923828,0.012310363352298737,-0.02187671884894371
1767621276011158300,30.659158203125,0.028891563415527344,-0.016623737290501595,-0.007515706121921539
1767621276031224000,30.67922412109375,0.036075592041015625,0.000032611191272735596,-0.009727664291858673
1767621276051283700,30.69928369140625,0.019317626953125,-0.012269057333469391,-0.007400091737508774
1767621276071349200,30.719349365234375,0.03847026824951172,0.002118069678544998,-0.016905274242162704
1767621276111467500,30.759467529296874,0.026494979858398438,-0.009296000003814697,-0.0009281262755393982
1767621276151585000,30.7995849609375,0.04085826873779297,-0.014197438955307007,-0.0016023479402065277
1767621276191708700,30.839708740234375,0.038463592529296875,0.00723150372505188,-0.011536750942468643
1767621276211767000,30.85976708984375,0.05282878875732422,-0.011922884732484818,-0.013812143355607986
1767621276231834000,30.879834228515627,0.03606891632080078,0.007476016879081726,-0.018528062850236893
1767621276251891200,30.89989111328125,0.040856361389160156,0.003163393586874008,-0.02068016305565834
1767621276271961600,30.919961669921875,0.043247222900390625,0.0010045208036899567,-0.013743497431278229
1767621276312085800,30.960085693359375,0.04803466796875,-0.0010058954358100891,-0.006575841456651688
1767621276352204800,31.000204833984377,0.04564380645751953,-0.0015843920409679413,0.0005684159696102142
1767621276392340700,31.0403408203125,0.03606700897216797,0.0029609985649585724,-0.004583686590194702
1767621276432460000,31.0804599609375,0.03606700897216797,0.012174807488918304,-0.00985388271510601
1767621276472574700,31.12057470703125,0.045642852783203125,-0.0024326927959918976,0.003908082842826843
1767621276492631600,31.140631591796875,0.043250083923339844,0.0040315426886081696,-0.015483669936656952
1767621276512696300,31.1606962890625,0.03846168518066406,-0.005546003580093384,-0.015364386141300201
1767621276552819700,31.20081982421875,0.05282783508300781,0.008837781846523285,-0.024912426248192787
1767621276592934400,31.240934326171875,0.03367424011230469,0.01113814115524292,-0.02269616164267063
1767621276633041700,31.281041748046874,0.03846454620361328,-0.015247613191604614,-0.015017863363027573
1767621276673156400,31.32115625,0.024100303649902344,-0.0010108239948749542,0.006772469729185104
1767621276713282300,31.3612822265625,0.040856361389160156,-0.007833190262317657,-0.012861805036664009
1767621276753399000,31.40139892578125,0.03367328643798828,0.002142641693353653,-0.014924684539437294
1767621276773453300,31.421453369140625,0.03367328643798828,0.0019197501242160797,-0.012797307223081589
1767621276793514000,31.441513916015627,0.0336761474609375,-0.0033268816769123077,-0.0078032854944467545
1767621276833628000,31.4816279296875,0.031287193298339844,-0.010960850864648819,-0.018853388726711273
1767621276873739500,31.521739501953125,0.0384674072265625,-0.003623809665441513,-0.00969293899834156
1767621276913859600,31.561859619140623,0.038468360900878906,0.0060301534831523895,-0.01662745699286461
1767621276953971000,31.601970947265624,0.040863990783691406,0.008364260196685791,-0.030603665858507156
1767621276974022400,31.6220224609375,0.031287193298339844,-0.0037069469690322876,-0.0021604932844638824
1767621276994089200,31.642089111328126,0.05044078826904297,0.0056336261332035065,-0.009517725557088852
1767621277034216400,31.682216552734374,0.045654296875,-0.006698582321405411,-0.009637733921408653
1767621277074330600,31.72233056640625,0.040863990783691406,-0.006448347121477127,-0.009526554495096207
1767621277094377200,31.742377197265625,0.040863990783691406,0.0032504983246326447,-0.01685544289648533
1767621277114440000,31.76243994140625,0.040863990783691406,-0.01575956866145134,-0.0044699981808662415
1767621277154548000,31.8025478515625,0.03128814697265625,-0.0014865212142467499,-0.006925426423549652
1767621277194660400,31.842660400390624,0.043262481689453125,0.00006918609142303467,-0.006803825497627258
1767621277234778400,31.8827783203125,0.03368854522705078,-0.021901682019233704,-0.0065100230276584625
1767621277254833000,31.9028330078125,0.038478851318359375,0.006618943065404892,-0.023307405412197113
1767621277274896100,31.922896240234376,0.0360870361328125,0.004002269357442856,-0.01566455140709877
1767621277294948900,31.942948974609376,0.02890300750732422,0.008910980075597763,0.003489656373858452
1767621277315012000,31.96301220703125,0.040874481201171875,-0.010361462831497192,-0.008719775825738907
1767621277355118800,32.003118896484374,0.045665740966796875,0.0032816901803016663,-0.0065670497715473175
1767621277395231000,32.04323095703125,0.03369331359863281,-0.0036535635590553284,-0.021019086241722107
1767621277435351800,32.08335180664063,0.04327392578125,0.0029440782964229584,-0.027800917625427246
1767621277455402200,32.10340234375,0.03848552703857422,0.0003158450126647949,-0.013765789568424225
1767621277475463200,32.12346313476562,0.04088115692138672,0.0003183633089065552,-0.008736804127693176
1767621277495515000,32.143514892578125,0.03848457336425781,-0.011382222175598145,-0.018407553434371948
1767621277515576800,32.163576904296875,0.03369712829589844,-0.006561972200870514,-0.008487366139888763
1767621277555690000,32.20368994140625,0.03609275817871094,-0.0068584345281124115,-0.001661635935306549
1767621277595790000,32.2437900390625,0.02412128448486328,-0.009289983659982681,-0.004117831587791443
1767621277635907000,32.283906982421875,0.04567241668701172,-0.007229503244161606,0.008120913058519363
1767621277655969500,32.30396948242188,0.036095619201660156,-0.021564016118645668,-0.027765527367591858
1767621277676028200,32.32402807617188,0.01694488525390625,0.006847761571407318,0.0013734549283981323
1767621277716146000,32.36414599609375,0.031307220458984375,-0.00968889519572258,-0.0036675594747066498
1767621277756263200,32.40426318359375,0.04088306427001953,-0.011633414775133133,-0.024928517639636993
1767621277796376600,32.44437646484375,0.03609752655029297,-0.011774372309446335,-0.026632774621248245
1767621277836487200,32.484487060546876,0.04567527770996094,-0.014111455529928207,-0.012020107358694077
1767621277876605000,32.52460498046875,0.043282508850097656,-0.007326431572437286,-0.009823653846979141
1767621277916726500,32.5647265625,0.04568004608154297,-0.015145666897296906,-0.005094192922115326
1767621277956844300,32.60484423828125,0.02892303466796875,-0.015545658767223358,-0.01436493918299675
1767621277976903400,32.6249033203125,0.0408935546875,-0.005820892751216888,-0.026246443390846252
1767621277996969700,32.6449697265625,0.026528358459472656,-0.010475333780050278,-0.016475707292556763
1767621278037086200,32.68508618164063,0.03850078582763672,-0.00811643898487091,0.0007477477192878723
1767621278077200000,32.725199951171874,0.04568672180175781,0.008367806673049927,-0.013238795101642609
1767621278117322000,32.76532202148437,0.03611278533935547,-0.004324261099100113,-0.006297547370195389
1767621278137378600,32.78537866210937,0.03611183166503906,-0.0018105506896972656,-0.0088123120367527
1767621278157440000,32.80543994140625,0.03371620178222656,-0.02100939303636551,-0.013874251395463943
1767621278177494800,32.82549487304688,0.05047607421875,-0.01149267703294754,-0.004364687949419022
1767621278197540000,32.8455400390625,0.04329395294189453,-0.0021177195012569427,-0.004447519779205322
1767621278237658000,32.885658203125,0.045691490173339844,-0.019316866993904114,-0.023297976702451706
1767621278277771000,32.92577099609375,0.05048179626464844,-0.014360886067152023,-0.015555258840322495
1767621278317877000,32.965876953125,0.03612041473388672,-0.0006627924740314484,-0.0010807514190673828
1767621278337932000,32.98593212890625,0.045699119567871094,-0.0011760815978050232,-0.015498831868171692
1767621278357995300,33.005995361328125,0.040909767150878906,-0.020085670053958893,-0.010627605020999908
1767621278398109200,33.04610913085938,0.040909767150878906,-0.01967542991042137,0.003944676369428635
1767621278438220000,33.08621997070313,0.045693397521972656,-0.011997517198324203,-0.00840555876493454
1767621278478336800,33.126336669921876,0.043303489685058594,-0.02466438151896,-0.022432126104831696
1767621278518440000,33.16643994140625,0.036121368408203125,-0.01007791981101036,-0.005471214652061462
1767621278558565000,33.20656518554687,0.03372383117675781,-0.012239929288625717,-0.00819886103272438
1767621278578609400,33.226609375,0.048087120056152344,-0.021511241793632507,-0.01301402598619461
1767621278598667300,33.24666723632812,0.045693397521972656,0.00004903227090835571,-0.01303018257021904
1767621278618716700,33.26671655273437,0.03851032257080078,-0.02635538950562477,-0.005994740873575211
1767621278638777000,33.286777099609374,0.04330158233642578,-0.012202531099319458,-0.007947981357574463
1767621278678888200,33.32688818359375,0.04329681396484375,-0.020994752645492554,-0.003415960818529129
1767621278698941700,33.346941650390626,0.04329395294189453,-0.0015432536602020264,-0.01306399330496788
1767621278718997000,33.3669970703125,0.03850555419921875,0.0011325888335704803,-0.01037784293293953
1767621278759096600,33.4070966796875,0.05287647247314453,-0.009158875793218613,-0.007514879107475281
1767621278799234000,33.44723413085938,0.05047893524169922,-0.02068711817264557,-0.000623118132352829
1767621278819279400,33.467279296875,0.03372001647949219,-0.004123076796531677,-0.012553445994853973
1767621278839337500,33.48733740234375,0.03371906280517578,-0.018282253295183182,-0.014873381704092026
1767621278859387400,33.50738745117187,0.03850841522216797,-0.02317808009684086,-0.012503400444984436
1767621278879444700,33.52744482421875,0.03372001647949219,-0.003913089632987976,-0.009892016649246216
1767621278899489800,33.54748974609375,0.036116600036621094,-0.004435468465089798,0.006671169772744179
1767621278919550200,33.56755029296875,0.03851127624511719,-0.018841881304979324,0.004414856433868408
1767621278959655400,33.607655517578124,0.04568958282470703,-0.013521388173103333,-0.008100025355815887
1767621278999767000,33.64776708984375,0.03850841522216797,-0.0231995340436697,-0.0030954554677009583
1767621279039860200,33.687860107421876,0.03132343292236328,-0.003601331263780594,-0.034279484301805496
1767621279079965400,33.72796533203125,0.05047321319580078,0.0019067078828811646,0.00641745887696743
1767621279100019000,33.74801904296875,0.038496971130371094,-0.00953662395477295,-0.015552006661891937
1767621279120078600,33.76807861328125,0.045680999755859375,-0.007211275398731232,-0.015240050852298737
1767621279140129800,33.7881298828125,0.050469398498535156,-0.016569174826145172,-0.022169139236211777
1767621279160194300,33.8081943359375,0.048076629638671875,-0.01192939281463623,0.0020908862352371216
1767621279200310300,33.848310302734376,0.043282508850097656,-0.018280215561389923,-0.007993798702955246
1767621279220363000,33.868363037109376,0.043282508850097656,0.010602205991744995,-0.020006339997053146
1767621279240423700,33.88842358398438,0.038491249084472656,0.005934622138738632,-0.0037278905510902405
1767621279280533200,33.928533203125,0.05525016784667969,0.01565273106098175,-0.02537580579519272
1767621279300587800,33.948587890625,0.048069000244140625,0.00833243876695633,-0.0011149905622005463
1767621279320648000,33.96864794921875,0.038489341735839844,-0.010459531098604202,0.0011593997478485107
1767621279340702000,33.988701904296875,0.052852630615234375,-0.002919349819421768,-0.008660171180963516
1767621279360763600,34.008763671875,0.050457000732421875,-0.00758734717965126,0.0006758309900760651
1767621279400885200,34.04888525390625,0.05284690856933594,-0.016515567898750305,-0.016391083598136902
1767621279441003000,34.0890029296875,0.04087257385253906,0.012630857527256012,-0.016787976026535034
1767621279481128400,34.12912841796875,0.052842140197753906,0.0032944120466709137,-0.0023028403520584106
1767621279521236700,34.16923681640625,0.05044841766357422,-0.00400857999920845,-0.002543129026889801
1767621279561346300,34.20934619140625,0.05044364929199219,-0.0061638690531253815,-0.008292749524116516
1767621279601458200,34.24945825195312,0.04086875915527344,-0.0063028484582901,-0.00798184797167778
1767621279641566500,34.28956640625,0.031291961669921875,-0.009055539965629578,-0.00846102461218834
1767621279681678000,34.329677978515626,0.04565620422363281,-0.004386112093925476,0.0005158446729183197
1767621279721796000,34.369796142578124,0.040866851806640625,0.0005414746701717377,-0.00902598351240158
1767621279761937400,34.4099375,0.05283832550048828,0.00007933005690574646,-0.016870904713869095
1767621279802050600,34.45005053710938,0.033687591552734375,-0.007943794131278992,-0.007413413375616074
1767621279842168300,34.49016821289062,0.048053741455078125,-0.010337013751268387,-0.014452015981078148
1767621279882291200,34.530291259765626,0.04087352752685547,-0.00812717154622078,-0.014346858486533165
1767621279922411500,34.57041162109375,0.04087257385253906,-0.0006781965494155884,-0.02363937348127365
1767621279962531300,34.61053125,0.05044746398925781,-0.012532658874988556,-0.009700439870357513
1767621280002636000,34.650635986328126,0.028902053833007812,-0.01036728173494339,-0.013814255595207214
1767621280042743300,34.690743408203126,0.04326820373535156,0.00609787181019783,-0.011765677481889725
1767621280082862000,34.730862060546876,0.03848075866699219,-0.004032954573631287,-0.014523971825838089
1767621280122978600,34.770978515625,0.043270111083984375,-0.006714358925819397,-0.009964460507035255
1767621280163088100,34.811088134765626,0.03609180450439453,-0.007061641663312912,-0.016532685607671738
1767621280203196700,34.85119677734375,0.03130531311035156,-0.0074795931577682495,-0.006973549723625183
1767621280243293700,34.891293701171875,0.036090850830078125,-0.012183133512735367,-0.012750225141644478
1767621280283401500,34.9314013671875,0.05284881591796875,-0.009781524538993835,-0.00810813158750534
1767621280323509500,34.97150952148438,0.040877342224121094,-0.0025369785726070404,-0.01549835130572319
1767621280363621400,35.011621337890624,0.03130149841308594,-0.00046814605593681335,-0.003736114129424095
1767621280403749400,35.051749267578124,0.03848457336425781,-0.008010078221559525,-0.018218733370304108
1767621280443862800,35.09186279296875,0.04805946350097656,-0.014848440885543823,-0.018373414874076843
1767621280483970600,35.13197045898438,0.043270111083984375,-0.01680276170372963,-0.0014052744954824448
1767621280524082700,35.172082763671874,0.04087543487548828,-0.00958985835313797,-0.018111754208803177
1767621280564195800,35.21219580078125,0.04327106475830078,-0.004900440573692322,-0.012836717069149017
1767621280604310000,35.25231005859375,0.050457000732421875,-0.005037520080804825,-0.007717559114098549
1767621280624364800,35.27236474609375,0.04806232452392578,-0.014682445675134659,0.0043166633695364
1767621280644427500,35.292427490234374,0.028908729553222656,0.004350379109382629,0.004075225442647934
1767621280684541700,35.33254174804687,0.03369712829589844,-0.012497767806053162,-0.0032603926956653595
1767621280724670200,35.372670166015624,0.040879249572753906,-0.012377243489027023,0.003680514171719551
1767621280764771000,35.41277099609375,0.04088020324707031,-0.007743794471025467,-0.01059248298406601
1767621280804876300,35.452876220703125,0.04327678680419922,-0.010553963482379913,-0.012749392539262772
1767621280824929000,35.472928955078125,0.040884971618652344,-0.0061263032257556915,0.006642084568738937
1767621280844988400,35.49298852539062,0.05046367645263672,-0.01829567924141884,0.011316841468214989
1767621280885098800,35.5330986328125,0.03130626678466797,-0.00573837012052536,-0.024632079526782036
1767621280905148700,35.55314868164062,0.033699989318847656,0.003749452531337738,-0.007817661389708519
1767621280925205500,35.57320556640625,0.03609657287597656,-0.010683838278055191,-0.01706811599433422
1767621280965310200,35.61331030273438,0.048065185546875,0.004076998680830002,0.0021729283034801483
1767621281005431800,35.653431884765624,0.038489341735839844,-0.010604560375213623,-0.017078908160328865
1767621281045551400,35.69355126953125,0.03849506378173828,0.005520541220903397,-0.016620971262454987
1767621281085665500,35.73366552734375,0.040889739990234375,-0.013757601380348206,-0.0023753978312015533
1767621281125780500,35.773780517578125,0.03610420227050781,-0.004587311297655106,-0.009438805282115936
1767621281165881900,35.8138818359375,0.05286407470703125,0.007317658513784409,-0.00674264132976532
1767621281205974500,35.853974609375,0.05047035217285156,-0.01892935112118721,-0.0041252560913562775
1767621281246083000,35.8940830078125,0.040894508361816406,0.0025567524135112762,-0.00394560769200325
1767621281286196200,35.9341962890625,0.024135589599609375,-0.014132563024759293,-0.008515939116477966
1767621281326307600,35.9743076171875,0.04328727722167969,-0.018563296645879745,-0.02029387280344963
1767621281366415400,36.01441528320313,0.04089641571044922,-0.002066235989332199,-0.01018376275897026
1767621281406520300,36.054520263671876,0.03131866455078125,-0.01613861322402954,-0.012476347386837006
1767621281446618000,36.0946181640625,0.0289306640625,-0.005041997879743576,-0.021587908267974854
1767621281486718700,36.13471875,0.055267333984375,-0.0002042241394519806,-0.009329520165920258
1767621281526827300,36.1748271484375,0.045693397521972656,-0.014676403254270554,-0.0208558551967144
1767621281566941700,36.21494165039063,0.04808807373046875,-0.00991438701748848,-0.02519570291042328
1767621281607055400,36.255055419921874,0.031332969665527344,-0.0004306212067604065,-0.024576827883720398
1767621281647164200,36.2951640625,0.04091072082519531,-0.007432911545038223,-0.004880908876657486
1767621281687274500,36.3352744140625,0.04569721221923828,-0.019519992172718048,-0.005401253700256348
1767621281707327200,36.3553271484375,0.04569530487060547,-0.02403256483376026,0.011275257915258408
1767621281727388200,36.37538818359375,0.03372478485107422,-0.019317306578159332,0.006616542115807533
1767621281767497000,36.4154970703125,0.04569721221923828,-0.002701651304960251,-0.02193114161491394
1767621281807594200,36.45559423828125,0.04091358184814453,-0.008088655769824982,-0.004927143454551697
1767621281827639800,36.47563989257812,0.04809284210205078,-0.003061387687921524,-0.005288038402795792
1767621281847695600,36.49569555664063,0.038516998291015625,-0.02228027954697609,-0.007526233792304993
1767621281887797500,36.53579760742188,0.036126136779785156,-0.0037179216742515564,0.004424400627613068
1767621281927904500,36.575904541015625,0.03372955322265625,-0.015749763697385788,-0.005950622260570526
1767621281968021000,36.61602099609375,0.031337738037109375,-0.006623525172472,0.003536943346261978
1767621281988073200,36.6360732421875,0.03851890563964844,-0.006584137678146362,-0.02537819743156433
1767621282008132000,36.65613208007812,0.03133869171142578,-0.0235116146504879,0.005900634452700615
1767621282028184600,36.6761845703125,0.052886009216308594,-0.0044221654534339905,-0.008549615740776062
1767621282048251600,36.69625170898438,0.043308258056640625,-0.006998684257268906,-0.004202909767627716
1767621282088364300,36.7363642578125,0.0289459228515625,0.004608824849128723,-0.006595734506845474
1767621282128472300,36.77647241210938,0.04091835021972656,0.0017363913357257843,-0.00204671174287796
1767621282168657000,36.816656982421875,0.03852367401123047,-0.019861813634634018,-0.011925272643566132
1767621282188704300,36.836704345703126,0.038521766662597656,-0.0005403868854045868,-0.004814647138118744
1767621282208746200,36.85674633789063,0.048095703125,-0.00970374420285225,-0.01707804575562477
1767621282248862700,36.89686279296875,0.03612232208251953,-0.014188084751367569,-0.015133615583181381
1767621282268911000,36.9169111328125,0.043304443359375,-0.011918317526578903,-0.012755662202835083
1767621282288969200,36.93696923828125,0.045699119567871094,-0.014434553682804108,-0.00572618842124939
1767621282329076000,36.977075927734376,0.04809284210205078,0.00961318239569664,-0.034307777881622314
1767621282349118200,36.9971181640625,0.04569816589355469,-0.019119761884212494,-0.01295161247253418
1767621282369173000,37.01717309570312,0.04809284210205078,-0.004774276167154312,-0.01768602430820465
1767621282409270500,37.0572705078125,0.04330158233642578,-0.018699008971452713,-0.015207391232252121
1767621282429315600,37.077315673828124,0.026544570922851562,-0.018752411007881165,-0.007878869771957397
1767621282449371100,37.09737109375,0.03372478485107422,-0.006420314311981201,-0.010165534913539886
1767621282469418000,37.11741796875,0.03372764587402344,-0.007061772048473358,0.0018562600016593933
1767621282489475600,37.1374755859375,0.04808998107910156,-0.009040392935276031,-0.005531668663024902
1767621282529584600,37.17758471679687,0.045706748962402344,-0.010495852679014206,-0.012056421488523483
1767621282549635800,37.1976357421875,0.031341552734375,-0.008020751178264618,-0.004930354654788971
1767621282569694700,37.21769482421875,0.04091835021972656,-0.024895381182432175,0.0021791942417621613
1767621282609801000,37.25780102539063,0.024160385131835938,-0.029642246663570404,-0.0044959113001823425
1767621282649894400,37.29789428710937,0.038527488708496094,-0.017810650169849396,-0.018296830356121063
1767621282689998300,37.33799829101562,0.03853034973144531,-0.02780330367386341,-0.006397169083356857
1767621282730101800,37.37810180664062,0.024166107177734375,-0.0013642534613609314,-0.008282627910375595
1767621282770210600,37.41821044921875,0.04571342468261719,-0.00843999907374382,-0.006093647330999374
1767621282810326500,37.45832641601562,0.03853130340576172,-0.018278341740369797,-0.015647679567337036
1767621282830386000,37.47838598632813,0.04331684112548828,-0.022513609379529953,-0.013480868190526962
1767621282850442000,37.49844189453125,0.03852558135986328,-0.010292205959558487,-0.004061561077833176
1767621282890607000,37.53860717773438,0.043313026428222656,-0.017205853015184402,-0.003935806453227997
1767621282930712800,37.578712890625,0.03612709045410156,-0.007041614502668381,-0.018576551228761673
1767621282970818800,37.61881884765625,0.03133678436279297,-0.013886094093322754,-0.001728147268295288
1767621283010920400,37.65892041015625,0.04808998107910156,-0.020321950316429138,-0.0019043199717998505
1767621283051027000,37.69902685546875,0.050487518310546875,-0.023237261921167374,-0.004431586712598801
1767621283091126500,37.73912646484375,0.036118507385253906,-0.036879561841487885,0.002645988017320633
1767621283111166700,37.75916674804687,0.04808807373046875,-0.005697112530469894,-0.011891361325979233
1767621283131223300,37.77922338867187,0.038512229919433594,-0.01760357990860939,-0.0065568722784519196
1767621283171327200,37.8193271484375,0.04090595245361328,-0.0007607266306877136,-0.009332910180091858
1767621283191377400,37.83937744140625,0.024147987365722656,-0.017753049731254578,-0.013917159289121628
1767621283211429400,37.859429443359375,0.03133106231689453,-0.0035288184881210327,-0.016327980905771255
1767621283251533800,37.89953393554688,0.02893543243408203,-0.008205708116292953,-0.0020653530955314636
1767621283291637200,37.93963720703125,0.0361175537109375,0.0017614364624023438,-0.004310943186283112
1767621283331736600,37.97973657226562,0.04329681396484375,-0.005121957510709763,-0.016395945101976395
1767621283371833900,38.019833740234375,0.03372001647949219,-0.0027006231248378754,-0.01884019747376442
1767621283391881200,38.039881103515626,0.03611469268798828,0.004277322441339493,-0.0120469368994236
1767621283411939300,38.059939208984375,0.036113739013671875,-0.02412577159702778,-0.011938098818063736
1767621283431993600,38.07999365234375,0.031322479248046875,-0.00956781953573227,0.004403943195939064
1767621283452052700,38.100052734375,0.03850269317626953,0.0025637634098529816,-0.007756233215332031
1767621283492168200,38.14016821289062,0.040894508361816406,-0.011268500238656998,-0.014971308410167694
1767621283532278000,38.180278076171874,0.055255889892578125,-0.01274089515209198,0.004415212199091911
1767621283572389600,38.2203896484375,0.036101341247558594,0.0019288808107376099,-0.012257039546966553
1767621283612496600,38.26049658203125,0.05046367645263672,-0.0022270865738391876,-0.009746480733156204
1767621283652604400,38.3006044921875,0.04088115692138672,-0.008671760559082031,0.015972616150975227
1767621283672660000,38.32065991210938,0.03130149841308594,-0.0036431923508644104,-0.010602764785289764
1767621283692715500,38.340715576171874,0.04805946350097656,-0.01561380922794342,-0.001507006585597992
1767621283712761000,38.360760986328124,0.03369426727294922,-0.008743871003389359,-0.020837906748056412
1767621283732816400,38.38081640625,0.03130054473876953,-0.008707288652658463,0.002894895151257515
1767621283752868000,38.4008681640625,0.043270111083984375,0.005898047238588333,-0.006681311875581741
1767621283772925000,38.420925048828124,0.031302452087402344,0.005426038056612015,-0.023141764104366302
1767621283813033500,38.46103344726563,0.05284881591796875,-0.013618439435958862,-0.004161123186349869
1767621283853127400,38.50112744140625,0.038482666015625,-0.025276929140090942,-0.018335625529289246
1767621283873171700,38.52117163085938,0.043270111083984375,-0.02048785425722599,-0.013803519308567047
1767621283893223000,38.54122290039062,0.03848075866699219,0.0036438927054405212,-0.01382330060005188
1767621283913273900,38.56127392578125,0.050454139709472656,-0.008612170815467834,-0.015986554324626923
1767621283933320400,38.58132055664063,0.02890777587890625,0.0010217614471912384,-0.02266322448849678
1767621283953359000,38.60135913085937,0.043274879455566406,-0.0063548944890499115,-0.012743096798658371
1767621283973408800,38.62140869140625,0.045670509338378906,-0.006412871181964874,-0.019775182008743286
1767621283993448700,38.64144873046875,0.04088401794433594,0.0149032361805439,-0.021761838346719742
1767621284013501400,38.66150146484375,0.03130912780761719,-0.01640353351831436,-0.01917428895831108
1767621284053594400,38.701594482421875,0.04088115692138672,0.003515038639307022,-0.01240590214729309
1767621284093690600,38.741690673828124,0.033699989318847656,0.0032734833657741547,-0.007424239069223404
1767621284133785900,38.78178588867188,0.03369903564453125,0.001037314534187317,-0.009797770529985428
1767621284153832200,38.80183227539062,0.02651691436767578,-0.0038697272539138794,-0.0026133470237255096
1767621284173887500,38.821887451171875,0.0456695556640625,-0.006143152713775635,-0.007641863077878952
1767621284193933800,38.84193383789062,0.03370094299316406,0.005480378866195679,-0.02658071368932724
1767621284213992000,38.86199194335938,0.033702850341796875,-0.0018076933920383453,-0.014146678149700165
1767621284254098400,38.902098388671874,0.028913497924804688,-0.01600896194577217,-0.023524463176727295
1767621284294193200,38.942193115234375,0.03370952606201172,-0.0004473067820072174,-0.004246078431606293
1767621284334281500,38.98228149414062,0.04807758331298828,-0.007687602192163467,-0.013015564531087875
1767621284374384000,39.022384033203124,0.040894508361816406,-0.007195480167865753,0.013558926060795784
1767621284394436900,39.042436767578124,0.03610515594482422,-0.014321129769086838,-0.00557100772857666
1767621284414493000,39.06249291992187,0.06004810333251953,-0.007199972867965698,-0.007814895361661911
1767621284434540800,39.082540771484375,0.03610420227050781,-0.01632573828101158,-0.022102799266576767
1767621284454596900,39.10259692382812,0.03370952606201172,-0.002028476446866989,-0.002902749925851822
1767621284494704600,39.14270458984375,0.03370952606201172,-0.023655343800783157,-0.0029920563101768494
1767621284534810600,39.182810546875,0.03370857238769531,-0.02088228054344654,-0.007748022675514221
