time,seconds_elapsed,z,y,x
1767620467370232000,0.163232177734375,-0.4792933464050293,0.2791609764099121,0.23912358283996582
1767620467390289700,0.18328955078125,0.46946001052856445,-0.4545879364013672,-0.780601978302002
1767620467430376700,0.223376708984375,1.2280597686767578,-1.7906451225280762,-2.8624587059020996
1767620467450455300,0.243455322265625,-0.5884733200073242,0.025161266326904297,-1.604933261871338
1767620467470509000,0.263509033203125,-1.390188217163086,0.6625993251800537,-0.9762434959411621
1767620467510594600,0.303594482421875,-0.0866384506225586,2.4914488792419434,4.4124908447265625
1767620467550686000,0.34368603515625,2.9257030487060547,0.24382472038269043,0.06667542457580566
1767620467590773800,0.383773681640625,-4.028726577758789,0.5202274322509766,-1.795278549194336
1767620467630898700,0.423898681640625,3.5026192665100098,-0.6352834701538086,-2.6506128311157227
1767620467670993200,0.4639931640625,1.8612613677978516,-2.0196776390075684,-0.6887269020080566
1767620467711095000,0.504094970703125,-0.3352036476135254,-0.21939539909362793,0.6931333541870117
1767620467751189000,0.54418896484375,-1.0601239204406738,-0.30985593795776367,-1.250685691833496
1767620467771236400,0.564236328125,-1.1279540061950684,-0.928168773651123,-0.07152557373046875
1767620467791293700,0.584293701171875,0.4380803108215332,-1.3150768280029297,-0.2351393699645996
1767620467831404300,0.624404296875,-0.7574124336242676,0.14110898971557617,0.14133548736572266
1767620467871512600,0.6645126953125,-0.8244342803955078,-1.754420280456543,-1.902076244354248
1767620467911605200,0.704605224609375,-1.809997797012329,0.8939132690429688,1.3112177848815918
1767620467951710000,0.7447099609375,0.7311949729919434,-0.03665304183959961,-0.20162057876586914
1767620467991804200,0.78480419921875,-0.10085582733154297,-1.255690574645996,-1.0450620651245117
1767620468031903500,0.824903564453125,-1.9507601261138916,-0.5028395652770996,0.7456851005554199
1767620468051937000,0.84493701171875,-1.1237788200378418,-0.6480679512023926,-0.45128583908081055
1767620468071994000,0.864994140625,-0.2581791877746582,-0.7751188278198242,1.2651405334472656
1767620468112084000,0.905083984375,-0.8062219619750977,-2.1161446571350098,-1.2762131690979004
1767620468152156700,0.94515673828125,-0.17226433753967285,-1.2534961700439453,3.628866195678711
1767620468172197400,0.965197265625,0.2899951934814453,-0.8566913604736328,2.7841711044311523
1767620468192249300,0.985249267578125,-6.080336093902588,0.07496881484985352,2.9019737243652344
1767620468212282600,1.00528271484375,-1.1449329853057861,-0.5165724754333496,0.24222421646118164
1767620468232323800,1.02532373046875,-0.5411787033081055,1.151865005493164,-4.692436218261719
1767620468252364000,1.045364013671875,-1.06925630569458,2.677217721939087,-3.6880903244018555
1767620468272411000,1.065410888671875,-14.417983055114746,2.3228697776794434,-1.8784446716308594
1767620468292452000,1.0854521484375,0.6593362092971802,6.255728721618652,1.3073339462280273
1767620468312502300,1.105502197265625,-2.134202480316162,-2.404287815093994,-4.329608917236328
1767620468352588800,1.1455888671875,-0.5120275020599365,-4.352446556091309,1.881032943725586
1767620468392680000,1.185679931640625,-0.5371489524841309,-0.972785472869873,0.2303905487060547
1767620468432775700,1.225775634765625,-0.7234691381454468,-0.40354108810424805,-0.7549686431884766
1767620468452818200,1.245818115234375,-0.3305041790008545,-1.0119261741638184,-0.23585844039916992
1767620468472880600,1.265880615234375,-0.06000328063964844,-0.4189167022705078,1.7410922050476074
1767620468512967000,1.305966796875,-1.4656155109405518,-1.6045045852661133,2.007150650024414
1767620468553052200,1.34605224609375,-1.3766663074493408,-1.1441917419433594,-1.1999311447143555
1767620468593143000,1.38614306640625,1.0520707368850708,3.151963233947754,-2.01297664642334
1767620468633233700,1.426233642578125,-0.10095858573913574,5.718173980712891,0.3216991424560547
1767620468673358600,1.466358642578125,-1.0180045366287231,5.2934980392456055,2.429105758666992
1767620468713442000,1.506442138671875,-3.253706932067871,2.535154342651367,2.5392556190490723
1767620468753558000,1.54655810546875,1.200201153755188,-7.892009735107422,-0.35907936096191406
1767620468793642000,1.58664208984375,-1.8127634525299072,-5.310011863708496,0.02802586555480957
1767620468833750000,1.62675,1.2401918172836304,0.12542438507080078,-2.8944015502929688
1767620468873828400,1.666828369140625,-1.4210509061813354,4.13151216506958,-4.353555202484131
1767620468913920500,1.70692041015625,-1.7847263813018799,0.5688600540161133,-1.7980178594589233
1767620468954000100,1.747000244140625,-0.6232333183288574,-0.24428939819335938,0.43671679496765137
1767620468994088700,1.787088623046875,-0.2880913019180298,0.5346832275390625,0.7790583968162537
1767620469034189800,1.82718994140625,-1.181811809539795,2.78786563873291,0.49862682819366455
1767620469074304000,1.867303955078125,0.14458918571472168,5.959221839904785,-1.844004511833191
1767620469114371600,1.90737158203125,-0.8347694873809814,6.4859395027160645,0.43045032024383545
1767620469154449400,1.947449462890625,-0.24458527565002441,-5.609393119812012,3.532050371170044
1767620469194530300,1.9875302734375,0.20348453521728516,-9.409701347351074,0.2959679365158081
1767620469234702800,2.027702880859375,0.5832235813140869,-3.958127975463867,-3.886230707168579
1767620469274779000,2.06777880859375,0.41452932357788086,-1.4657707214355469,2.404735803604126
1767620469314859500,2.107859619140625,1.9881205558776855,-1.2505369186401367,-0.441787987947464
1767620469354943200,2.147943115234375,1.3905537128448486,-1.0609188079833984,1.5020822286605835
1767620469395040500,2.18804052734375,-3.1146163940429688,0.11852169036865234,1.6648633480072021
1767620469435115300,2.228115234375,-3.4280571937561035,1.4626994132995605,0.17869865894317627
1767620469475190500,2.2681904296875,-2.9838743209838867,0.9632101058959961,-0.18129704892635345
1767620469515288000,2.3082880859375,-2.107523202896118,1.1192359924316406,0.8095099329948425
1767620469555385600,2.348385498046875,-1.1427192687988281,2.071381092071533,-0.5633472204208374
1767620469595459800,2.3884599609375,-0.5266218185424805,2.140414237976074,0.18544115126132965
1767620469635577900,2.428577880859375,0.6817610263824463,0.7020120620727539,1.4910857677459717
1767620469675662000,2.468662109375,0.6060583591461182,0.5518884658813477,-0.18878436088562012
1767620469715771600,2.508771728515625,0.4122285842895508,1.9476642608642578,-0.32496657967567444
1767620469755880700,2.548880615234375,1.0404722690582275,0.8803224563598633,0.06508619338274002
1767620469795990300,2.588990234375,0.2804603576660156,2.0079121589660645,-1.001499891281128
1767620469836095200,2.62909521484375,-0.0937044620513916,0.9879007339477539,-0.6902706623077393
1767620469876209700,2.669209716796875,0.6646301746368408,0.3538169860839844,-0.694814920425415
1767620469916313900,2.70931396484375,0.8745465278625488,0.8950586318969727,0.5190891623497009
1767620469956422000,2.749421875,0.012253761291503906,-3.1209983825683594,1.6148179769515991
1767620469976457700,2.769457763671875,-0.6901868581771851,-5.0457658767700195,2.9320130348205566
1767620469996504000,2.789504150390625,0.08939504623413086,-7.252396583557129,2.5724411010742188
1767620470036591900,2.829591796875,-1.3783445358276367,-5.6304931640625,-3.3966639041900635
1767620470076678000,2.869677978515625,-4.228499889373779,4.925459861755371,4.746448516845703
1767620470096717000,2.889717041015625,-3.485708475112915,-2.487180709838867,-1.5361078977584839
1767620470116764700,2.9097646484375,-1.7724857330322266,-9.908905029296875,-5.070477485656738
1767620470156842000,2.949842041015625,-1.106081485748291,-0.23269939422607422,0.6956444382667542
1767620470196927500,2.989927490234375,-0.9046913385391235,0.4919910430908203,-0.29671794176101685
1767620470237032400,3.030032470703125,-0.027226924896240234,1.334157943725586,-0.7940616011619568
1767620470277155600,3.070155517578125,0.8651911020278931,1.948951244354248,-1.1464002132415771
1767620470317276200,3.110276123046875,2.6792190074920654,0.5068216323852539,-0.28908300399780273
1767620470357393200,3.15039306640625,1.0782735347747803,1.3105249404907227,0.9195532202720642
1767620470397494800,3.190494873046875,-0.6874120235443115,1.4780769348144531,0.4377264380455017
1767620470437590300,3.23059033203125,-0.4516259431838989,-0.6261730194091797,-0.38095349073410034
1767620470477680600,3.2706806640625,-0.7912647724151611,1.6818046569824219,-0.6876009106636047
1767620470517764900,3.310764892578125,0.2246875762939453,1.5877571105957031,-0.21238869428634644
1767620470557862100,3.350862060546875,-0.7106027603149414,0.18123817443847656,-0.05334901809692383
1767620470597966000,3.390966064453125,-1.048242449760437,1.0322380065917969,-0.7921116352081299
1767620470638066200,3.431066162109375,-1.713204264640808,2.262192726135254,-0.7159982323646545
1767620470678195200,3.4711953125,-0.7324714660644531,1.2718815803527832,-1.097168207168579
1767620470718313200,3.511313232421875,-0.3015472888946533,1.5400981903076172,-0.34384745359420776
1767620470758420000,3.551419921875,1.4845941066741943,-5.097105979919434,-1.6325788497924805
1767620470798508500,3.591508544921875,2.1847338676452637,-7.217535972595215,0.9874100685119629
1767620470838630000,3.6316298828125,0.13337135314941406,-5.967047691345215,2.319796323776245
1767620470878713300,3.67171337890625,-1.0119261741638184,-1.6192741394042969,-1.6427710056304932
1767620470918835200,3.711835205078125,-2.3315329551696777,-0.4244823455810547,1.6656736135482788
1767620470958932500,3.751932373046875,-2.830432415008545,-0.6589417457580566,0.30199089646339417
1767620470999037700,3.79203759765625,-4.804215908050537,3.7394847869873047,1.774968147277832
1767620471039137500,3.832137451171875,-3.0339198112487793,4.694977760314941,1.4122060537338257
1767620471059218400,3.852218505859375,-2.5789377689361572,4.578613758087158,0.7562084794044495
1767620471079271700,3.872271728515625,-2.4084577560424805,3.6231627464294434,-0.7823280096054077
1767620471119355100,3.912355224609375,-0.8542811870574951,1.0124893188476562,-0.7323523163795471
1767620471159475500,3.952475341796875,0.8414397239685059,-0.35837745666503906,0.3870532512664795
1767620471199568600,3.992568603515625,1.5748779773712158,1.7031378746032715,0.16309508681297302
1767620471239670500,4.03267041015625,0.6428959369659424,1.2262983322143555,-0.8530869483947754
1767620471279773000,4.07277294921875,0.2552940845489502,0.12338638305664062,-0.28300538659095764
1767620471319888600,4.112888671875,1.0817804336547852,-0.4311847686767578,-0.08397215604782104
1767620471359990800,4.15299072265625,0.595695972442627,-3.6253795623779297,0.6264156103134155
1767620471380032800,4.17303271484375,-2.6496822834014893,-4.605608940124512,2.4232850074768066
1767620471400078800,4.193078857421875,0.7879056930541992,-4.314229965209961,1.077762484550476
1767620471440170200,4.233170166015625,-4.039861679077148,-5.2666215896606445,-0.6512495875358582
1767620471460210700,4.253210693359375,-3.187174081802368,-0.8368082046508789,2.337465763092041
1767620471480257800,4.2732578125,-3.21980357170105,0.7508573532104492,3.5000665187835693
1767620471520343300,4.31334326171875,-0.644219160079956,-6.499000549316406,-4.038105487823486
1767620471560432400,4.353432373046875,-1.4574790000915527,-0.2657642364501953,0.7667299509048462
1767620471600517400,4.393517333984375,-0.7601926326751709,-0.1917591094970703,-1.2696906328201294
1767620471640615400,4.433615478515625,0.21833300590515137,1.7103304862976074,0.48735547065734863
1767620471680720400,4.473720458984375,1.6951262950897217,2.3049092292785645,-0.0423276424407959
1767620471720829200,4.5138291015625,2.7350761890411377,0.8540401458740234,0.6764110326766968
1767620471760925700,4.55392578125,-0.37310659885406494,2.9139442443847656,1.2602927684783936
1767620471801049900,4.5940498046875,-1.7453219890594482,3.5418877601623535,-1.0125988721847534
1767620471841133300,4.63413330078125,-1.207443356513977,-0.3927936553955078,-3.6323325634002686
1767620471881224700,4.674224609375,-0.5919275283813477,3.3309826850891113,1.3739402294158936
1767620471921321500,4.714321533203125,0.4537227153778076,1.9085197448730469,0.2608188986778259
1767620471961441000,4.75444091796875,-1.513164758682251,0.042388916015625,-0.5094999670982361
1767620472001542000,4.7945419921875,0.33834338188171387,-3.4274682998657227,-0.0014573335647583008
1767620472041673000,4.8346728515625,1.7890009880065918,-9.518245697021484,0.5730124115943909
1767620472081767200,4.87476708984375,1.3328723907470703,-7.136531829833984,2.0433218479156494
1767620472121861000,4.914861083984375,0.319610595703125,-3.3413987159729004,-1.830438256263733
1767620472161957600,4.95495751953125,-1.922429084777832,0.3155198097229004,2.522695541381836
1767620472202084000,4.995083984375,-3.189983606338501,0.2317352294921875,1.5459866523742676
1767620472242179300,5.035179443359375,-4.571356296539307,2.995945930480957,2.504986047744751
1767620472262256600,5.055256591796875,-4.190328598022461,4.040506839752197,1.5189999341964722
1767620472282310100,5.07531005859375,-3.671919345855713,4.035741329193115,0.5948352217674255
1767620472322400800,5.11540087890625,-2.5782108306884766,4.02407169342041,-0.8687657117843628
1767620472362519300,5.155519287109375,-1.4400818347930908,1.7885384559631348,-1.846122145652771
1767620472402611200,5.195611083984375,-0.38821959495544434,-0.4760723114013672,-0.17446796596050262
1767620472442706400,5.23570654296875,3.155762195587158,0.11846065521240234,1.9597070217132568
1767620472482792000,5.2757919921875,1.675562858581543,0.5831813812255859,0.025839775800704956
1767620472522899500,5.3158994140625,0.4013667106628418,0.5646095275878906,0.2899983525276184
1767620472562994200,5.355994140625,0.14747881889343262,0.33867740631103516,-0.3725855052471161
1767620472603103200,5.396103271484375,1.0749354362487793,-0.035213470458984375,-0.08463174104690552
1767620472643200000,5.436199951171875,-2.1815624237060547,-3.5121841430664062,2.0953123569488525
1767620472683307300,5.476307373046875,0.6653652191162109,-1.228729248046875,-1.6889007091522217
1767620472723388700,5.516388671875,-0.08010363578796387,-9.611672401428223,-0.14864397048950195
1767620472763466800,5.556466796875,-5.808720588684082,5.960725784301758,2.482717990875244
1767620472803540700,5.596540771484375,-1.450256109237671,-9.539531707763672,-4.6616997718811035
1767620472843651800,5.63665185546875,0.32307863235473633,-0.36229515075683594,0.4740097224712372
1767620472883737000,5.676737060546875,-0.9544734954833984,1.2880630493164062,-0.6453855037689209
1767620472923823900,5.716823974609375,1.386664628982544,1.7452473640441895,-0.16385400295257568
1767620472963903700,5.75690380859375,0.39704322814941406,2.6675124168395996,-0.07462501525878906
1767620473004017200,5.79701708984375,0.8325107097625732,1.5702481269836426,0.23884111642837524
1767620473044097500,5.83709765625,-0.6639226675033569,5.663216590881348,2.900770664215088
1767620473084210700,5.877210693359375,-0.6678686141967773,-1.4669485092163086,-5.07036018371582
1767620473124287000,5.917286865234375,-1.3973287343978882,4.367589473724365,1.043670415878296
1767620473164361200,5.957361328125,-0.6593501567840576,3.041996479034424,-0.18801778554916382
1767620473184399600,5.977399658203125,0.17678093910217285,-0.41220855712890625,-1.4853519201278687
1767620473204443100,5.997443115234375,1.2158973217010498,-2.9644241333007812,-0.57999187707901
1767620473224478500,6.017478515625,1.0350229740142822,-3.3107337951660156,0.6413730382919312
1767620473244521700,6.037521728515625,0.8311247825622559,-3.8860626220703125,0.22400689125061035
1767620473284589600,6.077589599609375,1.9955992698669434,-8.347665786743164,1.5299427509307861
1767620473324657200,6.1176572265625,-0.9697599411010742,-8.111542701721191,1.067982792854309
1767620473364724700,6.157724853515625,-1.6748814582824707,-1.2595620155334473,-1.7933411598205566
1767620473404794400,6.19779443359375,-2.6357555389404297,-0.19138288497924805,1.8558012247085571
1767620473444861000,6.23786083984375,-3.2693793773651123,-0.650146484375,1.8732353448867798
1767620473464907300,6.2579072265625,-4.692053318023682,1.3531413078308105,2.21986722946167
1767620473484952000,6.2779521484375,-5.407967567443848,3.4317145347595215,2.1343250274658203
1767620473525021200,6.318021240234375,-3.9344797134399414,5.79356575012207,1.1688368320465088
1767620473565089800,6.35808984375,-3.349996566772461,5.545215606689453,-1.0159114599227905
1767620473605164300,6.398164306640625,-0.9999420642852783,-0.5261802673339844,-1.4541751146316528
1767620473645270800,6.438270751953125,2.6528103351593018,-1.4460830688476562,1.5811342000961304
1767620473685354800,6.478354736328125,3.5212724208831787,1.2300605773925781,-0.9797341823577881
1767620473705397200,6.498397216796875,2.322408676147461,1.3110523223876953,-1.211699366569519
1767620473725451800,6.51845166015625,1.1709110736846924,0.9702062606811523,0.08310623466968536
1767620473765546200,6.558546142578125,1.8995332717895508,-2.3722400665283203,-0.2647794485092163
1767620473805629200,6.598629150390625,-3.6317944526672363,-5.066307067871094,1.722715973854065
1767620473845718300,6.63871826171875,1.4507527351379395,-4.00523567199707,0.9414259791374207
1767620473885805800,6.678805908203125,-2.0379629135131836,-4.766214370727539,0.8028845191001892
1767620473905847800,6.698847900390625,-4.09193754196167,0.8693618774414062,1.9332289695739746
1767620473925897000,6.71889697265625,-2.9970993995666504,-1.9338188171386719,-2.909849166870117
1767620473966084000,6.759083984375,-2.2805347442626953,-3.909632682800293,-2.252697467803955
1767620474006177500,6.799177490234375,-0.18683362007141113,-0.24598979949951172,-0.062190353870391846
1767620474046278100,6.839278076171875,-0.7569606304168701,1.876739501953125,-0.6841657757759094
1767620474086376400,6.87937646484375,1.19492506980896,3.0994839668273926,0.3794742524623871
1767620474126513200,6.91951318359375,2.1809070110321045,1.0703210830688477,0.05284184217453003
1767620474166603500,6.959603515625,-1.313541054725647,5.089559078216553,2.019692897796631
1767620474206727000,6.999726806640625,-0.13171863555908203,2.1913323402404785,-1.0354771614074707
1767620474246820600,7.039820556640625,-2.054809093475342,1.3471341133117676,-0.7359735369682312
1767620474286940700,7.079940673828125,-3.8113880157470703,6.318120956420898,0.1897432804107666
1767620474327026700,7.120026611328125,-0.4844801425933838,-1.0390844345092773,-1.3101279735565186
1767620474367114000,7.160114013671875,1.619340419769287,-5.303192138671875,0.767994225025177
1767620474407208400,7.20020849609375,1.6830015182495117,-8.482670783996582,1.463066816329956
1767620474447306200,7.24030615234375,1.2447185516357422,-8.382709503173828,1.4854938983917236
1767620474487398000,7.28039794921875,-1.2740082740783691,-2.2360076904296875,-3.011862277984619
1767620474527481300,7.3204814453125,-2.3442742824554443,-2.171171188354492,1.9177091121673584
1767620474567578000,7.360578125,-2.8208513259887695,-0.5543770790100098,2.3868141174316406
1767620474607692300,7.4006923828125,-4.7761993408203125,3.1411046981811523,2.299070119857788
1767620474647771600,7.440771728515625,-4.302639961242676,4.929556369781494,1.200789213180542
1767620474667840000,7.460840087890625,-4.150102615356445,5.663032054901123,0.6775380373001099
1767620474687889000,7.480888916015625,-3.8815417289733887,5.723330020904541,0.317423939704895
1767620474727972900,7.520972900390625,-1.5640546083450317,0.8644552230834961,-2.0053906440734863
1767620474768084700,7.561084716796875,1.6399986743927002,0.05380058288574219,0.3883209824562073
1767620474788120300,7.581120361328125,4.562853813171387,1.3027305603027344,-0.23309648036956787
1767620474808173600,7.601173583984375,3.3582441806793213,2.015289306640625,-0.3501199185848236
1767620474848271400,7.641271240234375,0.9534618854522705,0.9037408828735352,0.8289810419082642
1767620474888354600,7.6813544921875,-0.24681806564331055,-3.073622703552246,1.0460256338119507
1767620474908426000,7.701426025390625,-8.158794403076172,-5.6520795822143555,3.699253797531128
1767620474928472300,7.721472412109375,-1.2213541269302368,-6.370767593383789,2.209838390350342
1767620474968556800,7.761556884765625,3.906083345413208,-10.224959373474121,-3.2845706939697266
1767620475008682800,7.801682861328125,-4.8967509269714355,2.353325366973877,0.6184839010238647
1767620475048775200,7.841775146484375,-2.793980360031128,-7.514006614685059,-3.021670341491699
1767620475068850000,7.861849853515625,-1.6710681915283203,-3.76015567779541,-3.8821334838867188
1767620475088897000,7.88189697265625,0.06395077705383301,-1.416971206665039,0.07871556282043457
1767620475128983000,7.921983154296875,-1.3925203084945679,0.38671875,-0.8314181566238403
1767620475169082600,7.96208251953125,0.060788631439208984,1.925004005432129,1.1092761754989624
1767620475189126400,7.98212646484375,-0.26308631896972656,2.9550909996032715,0.9628750681877136
1767620475209168100,8.002168212890625,0.09960699081420898,3.8147130012512207,0.8028419613838196
1767620475249279700,8.04227978515625,1.7522587776184082,2.3555150032043457,1.221800684928894
1767620475289379800,8.0823798828125,-1.7303160429000854,3.3366146087646484,0.8841866254806519
1767620475329464300,8.12246435546875,-1.257552146911621,2.8855905532836914,-1.2742451429367065
1767620475369556700,8.162556640625,-0.7260210514068604,1.5845746994018555,-1.3062127828598022
1767620475409659100,8.2026591796875,-1.2234768867492676,2.3042044639587402,-0.4823884963989258
1767620475449738200,8.24273828125,-0.44473958015441895,-1.569967269897461,-0.028732478618621826
1767620475469772500,8.2627724609375,0.5129101276397705,-4.3041887283325195,-0.6293833255767822
1767620475489814300,8.282814208984375,1.4084606170654297,-6.040717124938965,-0.14927220344543457
1767620475529896000,8.32289599609375,1.440596580505371,-9.95280933380127,2.1754260063171387
1767620475569973800,8.362973876953125,0.34659814834594727,-5.801542282104492,0.21288877725601196
1767620475590013200,8.38301318359375,-0.45067644119262695,-2.4701757431030273,-1.399883508682251
1767620475610057000,8.403056884765626,-1.9273295402526855,-0.5898332595825195,-1.115265130996704
1767620475630097400,8.423097412109374,-2.7720041275024414,0.34812164306640625,0.4948112964630127
1767620475650152700,8.443152587890625,-2.938138723373413,-0.7591652870178223,1.5672420263290405
1767620475690252500,8.48325244140625,-3.2950046062469482,-0.7880673408508301,2.413348436355591
1767620475730355700,8.523355712890625,-4.936168193817139,2.470592975616455,2.9061381816864014
1767620475770448400,8.563448486328125,-4.391403675079346,3.3838601112365723,1.105508804321289
1767620475810568400,8.603568359375,-3.331789970397949,4.321262359619141,-0.26359081268310547
1767620475830607000,8.623607177734375,-2.5045132637023926,3.9808349609375,-0.7462639808654785
1767620475850655000,8.643655029296875,-1.4487946033477783,2.523491382598877,-1.2002174854278564
1767620475890785300,8.683785400390626,0.6426763534545898,-1.2025585174560547,-0.13094580173492432
1767620475930871600,8.72387158203125,2.7816386222839355,0.7993278503417969,0.13075563311576843
1767620475970982100,8.763982177734375,1.5775494575500488,0.018909454345703125,-0.5961480140686035
1767620476011081500,8.80408154296875,0.3206174373626709,0.012012481689453125,0.6517514586448669
1767620476051180800,8.844180908203125,1.372133731842041,-1.3422603607177734,0.35717737674713135
1767620476091274000,8.88427392578125,-3.4481120109558105,-3.661749839782715,3.0328738689422607
1767620476111314200,8.904314208984376,-0.8478546142578125,-3.0846376419067383,0.6793093681335449
1767620476131365000,8.924365234375,-0.46421360969543457,-3.408153533935547,-0.04518866539001465
1767620476171449900,8.964449951171876,-1.2620277404785156,-6.123631477355957,-2.811331033706665
1767620476211563300,9.004563232421875,-3.1952085494995117,1.2591462135314941,0.9482452869415283
1767620476231604500,9.0246044921875,-4.710583209991455,-5.106210708618164,-2.262929677963257
1767620476251652000,9.044652099609374,-1.4575273990631104,-5.492415428161621,-2.7404322624206543
1767620476291734300,9.084734375,-1.1645481586456299,-1.2427005767822266,0.6596812605857849
1767620476311771000,9.10477099609375,-1.1356019973754883,-0.8249330520629883,-1.1454592943191528
1767620476331859200,9.124859130859376,-0.6398324966430664,0.6795177459716797,-0.9897165298461914
1767620476371964700,9.164964599609375,0.4543447494506836,1.6723322868347168,1.0408384799957275
1767620476412069000,9.205069091796876,1.1702885627746582,1.9499640464782715,-0.0999346375465393
1767620476432128500,9.22512841796875,1.4784741401672363,1.559138298034668,-0.07065021991729736
1767620476452194300,9.2451943359375,1.8129479885101318,1.43361234664917,0.2259119749069214
1767620476492299300,9.28529931640625,-1.616679310798645,3.202521324157715,0.804610550403595
1767620476532421000,9.325421142578126,-1.8716636896133423,1.8894095420837402,-1.3819661140441895
1767620476572525600,9.365525634765625,-1.9593226909637451,1.4744439125061035,1.3519083261489868
1767620476612642800,9.405642822265625,-0.36490440368652344,1.3656344413757324,0.332533597946167
1767620476652736000,9.445736083984375,-1.1877269744873047,1.4224653244018555,0.96009361743927
1767620476692836000,9.485836181640625,1.316164493560791,-2.4787416458129883,-0.39748334884643555
1767620476732926200,9.52592626953125,1.5244345664978027,-8.951353073120117,-0.01844686269760132
1767620476773039400,9.566039306640626,-0.662200927734375,-5.473941326141357,2.2181036472320557
1767620476813121500,9.60612158203125,-2.8409528732299805,-0.49842262268066406,1.4886934757232666
1767620476853252900,9.6462529296875,-2.5120601654052734,-2.0148468017578125,1.9542027711868286
1767620476893359900,9.68635986328125,-3.6519811153411865,-1.2277464866638184,2.6819353103637695
1767620476933446700,9.72644677734375,-3.8952155113220215,1.4759459495544434,2.552607536315918
1767620476973533400,9.766533447265624,-3.1105544567108154,3.096202850341797,0.7583556771278381
1767620477013647600,9.806647705078126,-2.0963072776794434,2.151122570037842,-0.9953528046607971
1767620477053737500,9.846737548828125,-1.7282476425170898,-0.6406993865966797,0.04765927791595459
1767620477093868500,9.88686865234375,1.4458057880401611,-0.7530040740966797,-0.005915224552154541
1767620477133968100,9.926968017578124,1.7102458477020264,1.129098892211914,-0.9683447480201721
1767620477174084000,9.967083984375,1.4136621952056885,0.5834388732910156,-0.3202337622642517
1767620477214190800,10.00719091796875,1.2353837490081787,0.9904804229736328,1.6874415874481201
1767620477254309600,10.0473095703125,3.0730814933776855,0.30806636810302734,1.1384118795394897
1767620477294407200,10.0874072265625,0.08678555488586426,-2.9581079483032227,-0.7930182218551636
1767620477314479900,10.10747998046875,-3.4419736862182617,-5.691469192504883,0.9893884062767029
1767620477334530300,10.1275302734375,-0.5742032527923584,-5.1099090576171875,1.0296306610107422
1767620477374623000,10.167623046875,-4.183526515960693,-3.8553543090820312,2.7522788047790527
1767620477414718000,10.207718017578125,-3.6202890872955322,3.0796236991882324,6.344776630401611
1767620477454819000,10.247819091796876,-0.5577199459075928,-9.088272094726562,-4.476855754852295
1767620477494919700,10.287919677734376,-0.11200857162475586,-1.1714849472045898,0.24922025203704834
1767620477535011800,10.32801171875,-1.163329839706421,0.2663297653198242,1.6012866497039795
1767620477575119600,10.36811962890625,-0.439120888710022,0.284332275390625,0.7240943908691406
1767620477615228000,10.408227783203126,0.5433779954910278,1.3569440841674805,1.3132336139678955
1767620477655341300,10.44834130859375,0.5408155918121338,2.665609836578369,1.1975421905517578
1767620477695449900,10.488449951171875,0.36503612995147705,2.0141725540161133,0.4319736957550049
1767620477735553500,10.528553466796875,1.2638778686523438,2.0322818756103516,-0.3791619539260864
1767620477775656700,10.56865673828125,-0.9668399095535278,2.635758399963379,0.29579782485961914
1767620477815792400,10.60879248046875,-0.27364158630371094,1.8038945198059082,0.6955521106719971
1767620477855888000,10.648887939453125,0.024874210357666016,1.9155101776123047,-0.2771388292312622
1767620477895986400,10.688986328125,-1.0015629529953003,3.270249843597412,0.5960910320281982
1767620477916025900,10.70902587890625,0.20660853385925293,0.4065570831298828,-0.27724170684814453
1767620477936075300,10.7290751953125,0.5069334506988525,-3.076059341430664,-1.8644675016403198
1767620477976166000,10.769165771484374,1.6378302574157715,-7.620126724243164,-0.42323756217956543
1767620478016252000,10.809251953125,2.1955888271331787,-7.879814147949219,5.730293273925781
1767620478056374300,10.849374267578124,1.7530615329742432,-6.604443550109863,4.146686553955078
1767620478096464400,10.88946435546875,-0.18829727172851562,-2.673478126525879,3.9919328689575195
1767620478136547000,10.929547119140626,-1.835191011428833,-0.6735076904296875,4.865231037139893
1767620478176631600,10.969631591796874,-3.828040599822998,2.2762742042541504,4.615312099456787
1767620478216707000,11.00970703125,-4.5181121826171875,3.375361442565918,2.141049861907959
1767620478236750600,11.02975048828125,-4.4022440910339355,3.418328285217285,0.9772253036499023
1767620478256795400,11.04979541015625,-4.059079170227051,3.595686435699463,0.5977391004562378
1767620478296875000,11.089875,-3.108696460723877,3.4257006645202637,0.6714909076690674
1767620478336952600,11.12995263671875,-1.6381111145019531,2.1460671424865723,-2.2270917892456055
1767620478377065000,11.17006494140625,1.186631441116333,0.798426628112793,-2.742719888687134
1767620478417170700,11.210170654296874,2.6402788162231445,0.8459739685058594,-0.24752217531204224
1767620478457262600,11.2502626953125,3.8640756607055664,0.6911630630493164,-1.0876131057739258
1767620478497377500,11.29037744140625,3.908064365386963,-0.5765390396118164,-0.7175923585891724
1767620478537484300,11.330484375,5.614546775817871,-0.28199195861816406,2.9530744552612305
1767620478577558300,11.370558349609375,3.413784980773926,-1.6611204147338867,0.6064841747283936
1767620478617673200,11.410673095703125,1.614281177520752,-4.6097869873046875,2.1357474327087402
1767620478637707800,11.430707763671874,-2.9917993545532227,-2.9836912155151367,0.6982081532478333
1767620478657754600,11.450754638671874,2.1699130535125732,-5.708346366882324,6.5338215827941895
1767620478697919700,11.490919677734375,-2.1211650371551514,2.021270751953125,2.534660816192627
1767620478738011400,11.531011474609375,-3.1901297569274902,-5.341225624084473,0.9643365144729614
1767620478778129000,11.57112890625,-0.2253173589706421,-1.9641304016113281,-3.5900869369506836
1767620478818210600,11.61121044921875,-0.8173463344573975,0.8106327056884766,3.185582160949707
1767620478858335500,11.65133544921875,1.3424078226089478,0.3552427291870117,-0.613335132598877
1767620478898432000,11.691431884765626,1.981964111328125,1.6120939254760742,0.5087223649024963
1767620478938538000,11.7315380859375,3.229337215423584,2.0180368423461914,0.09649288654327393
1767620478978640100,11.77164013671875,1.3181471824645996,2.2290759086608887,-1.1891881227493286
1767620479018748700,11.811748779296876,2.831721544265747,3.052520275115967,-0.08688056468963623
1767620479058843400,11.851843505859375,0.3556213974952698,2.5420074462890625,-0.7801555395126343
1767620479098946300,11.8919462890625,1.475989580154419,1.7010993957519531,-1.155086874961853
1767620479139046400,11.93204638671875,2.2208962440490723,1.721059799194336,0.6325699090957642
1767620479159095800,11.952095703125,2.638019323348999,2.1471304893493652,0.6922627687454224
1767620479179148300,11.972148193359375,1.866698145866394,2.3058767318725586,0.3700796961784363
1767620479219236000,12.012236083984375,3.1936464309692383,-1.3798437118530273,0.41925543546676636
1767620479239273500,12.0322734375,4.061184406280518,-3.6332883834838867,-0.005083203315734863
1767620479259322400,12.052322265625,2.8466856479644775,-5.838038444519043,0.6190729737281799
1767620479299409400,12.092409423828125,0.6881039142608643,-6.979406356811523,2.724956512451172
1767620479339497500,12.13249755859375,0.24327301979064941,0.04389190673828125,-0.6284557580947876
1767620479379594000,12.172593994140625,0.5110936164855957,-0.7283840179443359,1.7811644077301025
1767620479419705000,12.212705078125,-0.05708932876586914,-1.6596250534057617,1.9773333072662354
1767620479459805700,12.2528056640625,-0.9740958213806152,2.4856925010681152,3.5794944763183594
1767620479499899100,12.292899169921874,-1.488255262374878,3.9301915168762207,0.2137400507926941
1767620479539990300,12.332990234375,-0.697239875793457,3.249448776245117,-0.2874932885169983
1767620479580115500,12.373115478515626,0.14516711235046387,3.763420581817627,-0.08060675859451294
1767620479600157400,12.393157470703125,0.6378028392791748,3.662799835205078,-1.1080396175384521
1767620479620211200,12.413211181640625,1.4996860027313232,2.4511971473693848,-1.4479458332061768
1767620479660317200,12.453317138671874,3.815819263458252,0.7930374145507812,-0.4520445466041565
1767620479700401700,12.493401611328125,5.851955413818359,-0.3022012710571289,1.1475379467010498
1767620479740516600,12.5335166015625,2.8797781467437744,2.62699556350708,0.8366641402244568
1767620479780591600,12.573591552734374,2.6529059410095215,2.432095527648926,1.589381456375122
1767620479820678100,12.61367822265625,4.034014701843262,-5.7084856033325195,2.565615653991699
1767620479860753200,12.653753173828125,-2.612286329269409,-16.31551742553711,-0.6476659774780273
1767620479900842200,12.69384228515625,-0.2882049083709717,11.283578872680664,9.464369773864746
1767620479940934000,12.733933837890625,4.516683101654053,-10.477641105651855,-5.875858306884766
1767620479960991200,12.7539912109375,-0.8842453956604004,-10.485550880432129,-11.389918327331543
1767620479981045200,12.774045166015625,0.9514079093933105,-1.9610891342163086,-3.5257060527801514
1767620480021124000,12.8141240234375,1.814016580581665,2.244635581970215,1.8995201587677002
1767620480061214000,12.8542138671875,1.537135362625122,0.7205963134765625,-0.8313748836517334
1767620480101319200,12.894319091796875,2.251361131668091,0.9819049835205078,-2.6317129135131836
1767620480141415700,12.934415771484375,2.5148537158966064,4.37368631362915,-1.1479952335357666
1767620480181502700,12.974502685546875,1.6173925399780273,2.3930916786193848,-0.403549462556839
1767620480221697800,13.01469775390625,-0.5627590417861938,3.0646910667419434,-0.4428084194660187
1767620480261790000,13.0547900390625,0.382004976272583,2.300605297088623,0.8444669246673584
1767620480301884000,13.0948837890625,0.23874437808990479,-0.05527687072753906,-1.1771703958511353
1767620480341977900,13.134977783203125,0.5026345252990723,0.4536314010620117,-2.346329689025879
1767620480382080000,13.175080078125,0.9666069746017456,0.1664752960205078,-2.387972831726074
1767620480422197800,13.21519775390625,1.5307273864746094,0.18114948272705078,-0.8938096761703491
1767620480442256600,13.235256591796874,2.309274196624756,-1.0352039337158203,0.4704781472682953
1767620480462316300,13.25531640625,1.5913619995117188,-3.408827781677246,0.25227120518684387
1767620480502408000,13.295407958984375,-0.27913546562194824,-3.582730293273926,-1.9709304571151733
1767620480542535000,13.335534912109376,-3.757948398590088,-4.29682731628418,-7.590112209320068
1767620480582622700,13.375622802734375,-0.10660600662231445,-9.956501960754395,-5.3882527351379395
1767620480622709500,13.41570947265625,-3.9531288146972656,-3.204975128173828,1.7440990209579468
1767620480662792000,13.4557919921875,-3.251725673675537,-1.0907135009765625,-1.8254423141479492
1767620480702888700,13.495888671875,-4.955350399017334,1.0076184272766113,-0.7778642177581787
1767620480742968800,13.53596875,-5.70872163772583,1.9289898872375488,1.7445306777954102
1767620480783045000,13.576045166015625,-4.11395788192749,1.9161105155944824,2.7171080112457275
1767620480803081700,13.596081787109375,-3.495713710784912,1.2881851196289062,2.5157663822174072
1767620480823136800,13.61613671875,-2.2755956649780273,0.12591266632080078,1.3708889484405518
1767620480863239200,13.6562392578125,-0.6994984149932861,-3.573911666870117,-0.05034574121236801
1767620480883278000,13.676278076171876,4.104971408843994,-1.7423839569091797,2.2337465286254883
1767620480903322400,13.696322265625,1.1310389041900635,2.0338330268859863,3.807389736175537
1767620480943413500,13.73641357421875,-1.328362226486206,0.710540771484375,2.224395990371704
1767620480983498200,13.776498291015624,-1.4040923118591309,-8.758722305297852,-7.579139709472656
1767620481023578600,13.81657861328125,-1.7153552770614624,7.000101089477539,4.734142303466797
1767620481043615700,13.83661572265625,-0.7346729040145874,0.7426319122314453,0.9422785639762878
1767620481063660500,13.85666064453125,-1.2437620162963867,-4.94476318359375,-0.9490765333175659
1767620481103742200,13.8967421875,-1.1481736898422241,0.18977928161621094,-1.7440762519836426
1767620481123778600,13.916778564453125,-0.5477608442306519,1.696241855621338,-0.7998989224433899
1767620481143826400,13.936826416015625,-1.835052490234375,0.3107738494873047,-0.8170835971832275
1767620481183930400,13.976930419921874,0.048308610916137695,-0.6127958297729492,0.1144225001335144
1767620481224034300,14.017034423828125,-0.07882916927337646,0.8320808410644531,1.1780027151107788
1767620481264148700,14.057148681640625,1.3182876110076904,0.2840147018432617,-2.0447874069213867
1767620481304246800,14.097246826171874,0.838024914264679,-0.7303867340087891,-3.246612548828125
1767620481344355000,14.13735498046875,-0.15441212058067322,0.8772754669189453,-1.8981969356536865
1767620481364402700,14.157402587890624,-0.8186397552490234,1.379103660583496,0.7107195258140564
1767620481384456200,14.177456298828124,-0.3548196852207184,-0.7183218002319336,-0.05282747745513916
1767620481424570400,14.2175703125,-0.17832964658737183,0.18831729888916016,-0.880368709564209
1767620481464683800,14.257683837890625,0.06850528717041016,-0.6088571548461914,-1.3989919424057007
1767620481504794600,14.297794677734375,1.2856073379516602,-2.5780906677246094,-1.5474153757095337
1767620481524831500,14.31783154296875,2.241283893585205,-4.177995681762695,-2.891232490539551
1767620481544879000,14.337879150390625,2.6118669509887695,-5.7954607009887695,-4.27231502532959
1767620481584995600,14.37799560546875,3.58197021484375,-5.571462631225586,-0.9641238451004028
1767620481625074000,14.418073974609374,3.370804786682129,-4.486300468444824,-1.783456802368164
1767620481665148700,14.458148681640624,1.8911384344100952,-4.267097473144531,-2.5464959144592285
1767620481705226200,14.498226318359375,-1.5697782039642334,-7.018441200256348,-1.6440744400024414
1767620481745345300,14.53834521484375,-3.8377952575683594,-5.053458213806152,-1.3718695640563965
1767620481765385700,14.5583857421875,-3.94031023979187,-5.221531867980957,0.9866629242897034
1767620481785432800,14.578432861328125,-1.6501307487487793,-4.3628387451171875,1.7831573486328125
1767620481805470200,14.59847021484375,-0.8751990795135498,-3.228801727294922,1.6723105907440186
1767620481825511000,14.618510986328126,-2.1944539546966553,-3.0938663482666016,0.6244825720787048
1767620481865591000,14.658591064453125,-6.168772220611572,0.6904234886169434,0.6130276918411255
1767620481905708800,14.698708740234375,-6.693704605102539,5.801910877227783,2.0072519779205322
1767620481945788700,14.73878857421875,-8.000814437866211,1.7325749397277832,-0.47402453422546387
1767620481985898800,14.778898681640625,-7.116199493408203,2.223205804824829,0.3034689426422119
1767620482025976600,14.8189765625,-4.51589298248291,0.6403641700744629,-1.7331231832504272
1767620482066062600,14.8590625,-2.0913357734680176,1.7937333583831787,-1.6408010721206665
1767620482106154500,14.899154541015625,0.23487472534179688,0.5968647003173828,-3.1610803604125977
1767620482146281700,14.93928173828125,-6.897345066070557,3.16211199760437,4.1937174797058105
1767620482186363000,14.97936279296875,9.77707290649414,-16.065805435180664,-2.701847791671753
1767620482226476800,15.019476806640625,3.8554744720458984,-1.3233122825622559,4.4809417724609375
1767620482266560500,15.059560546875,-3.172069549560547,-5.959195137023926,-0.4039250612258911
1767620482286595300,15.07959521484375,-2.630908489227295,-4.703577995300293,1.7299721240997314
1767620482306635500,15.099635498046876,-3.3056254386901855,-2.628077983856201,2.4471077919006348
1767620482326674000,15.119673828125,-2.772956609725952,-2.016119956970215,1.8878737688064575
1767620482346720500,15.139720458984375,-2.5160934925079346,-1.9500718116760254,-0.18645548820495605
1767620482386821000,15.179821044921875,-2.7189886569976807,-0.836705207824707,-2.9313340187072754
1767620482426930200,15.21993017578125,-1.9729390144348145,1.2778244018554688,-1.834665298461914
1767620482467043600,15.260043701171876,-0.3269522190093994,1.7887845039367676,-1.9527769088745117
1767620482507155000,15.300155029296874,-0.20097088813781738,1.645632266998291,-1.4329047203063965
1767620482547262700,15.3402626953125,0.6320306062698364,0.04925060272216797,-0.8634124994277954
1767620482567314400,15.360314453125,0.8571648597717285,-0.21262550354003906,-0.7776222229003906
1767620482587372500,15.38037255859375,0.09140622615814209,0.12676239013671875,-1.1272845268249512
1767620482627473000,15.420472900390624,-1.1418888568878174,0.9095344543457031,-2.0711002349853516
1767620482667569200,15.460569091796875,-0.642613410949707,-0.2505331039428711,-1.9315234422683716
1767620482707687700,15.500687744140626,1.1830456256866455,-1.8429489135742188,-0.7098590135574341
1767620482747774700,15.540774658203125,2.6857481002807617,-3.0946874618530273,-1.8170249462127686
1767620482787849700,15.580849609375,3.6566944122314453,-5.361471176147461,-1.8748979568481445
1767620482827921400,15.62092138671875,2.258425712585449,-3.2639780044555664,-5.947352409362793
1767620482867990500,15.660990478515625,2.99739933013916,-5.707711219787598,0.26072871685028076
1767620482908058000,15.70105810546875,-1.131129264831543,-6.732355117797852,-3.6857385635375977
1767620482948126200,15.741126220703125,-7.957551002502441,-5.783365249633789,-10.15070915222168
1767620482988207000,15.78120703125,-2.2479214668273926,-5.119176864624023,-5.421234130859375
1767620483028281900,15.82128173828125,-4.585526466369629,-4.190130233764648,-1.276666522026062
1767620483068355800,15.86135595703125,-6.2194013595581055,-1.9784698486328125,-1.616917610168457
1767620483108443000,15.90144287109375,-4.998742580413818,1.3860931396484375,0.8087594509124756
1767620483148518100,15.94151806640625,-5.787778854370117,3.073179006576538,-0.6434221863746643
1767620483188631000,15.981631103515625,-5.9538750648498535,0.11136817932128906,-2.6422319412231445
1767620483228724200,16.02172412109375,-5.303780555725098,0.571077823638916,-1.7529692649841309
1767620483268804400,16.061804443359375,-3.3664979934692383,0.06758308410644531,-1.346008539199829
1767620483288844300,16.08184423828125,-2.4168872833251953,0.09282112121582031,-1.0696191787719727
1767620483308889600,16.1018896484375,-1.1197428703308105,0.9815912246704102,-1.7098265886306763
1767620483348992800,16.14199267578125,-0.4945526123046875,0.06273269653320312,-1.6384687423706055
1767620483389088500,16.182088623046877,3.104264736175537,-0.885918140411377,-4.607573509216309
1767620483429164000,16.2221640625,1.5009632110595703,-2.981072425842285,3.369152307510376
1767620483469241300,16.262241455078126,1.679211139678955,-3.2338600158691406,-1.896240472793579
1767620483509349600,16.302349609375,-2.4905996322631836,-2.120522975921631,-1.4943718910217285
1767620483549437200,16.342437255859377,-2.363875389099121,-0.35523128509521484,-0.4081805944442749
1767620483589538000,16.3825380859375,-1.2672863006591797,-1.680929183959961,-0.20951306819915771
1767620483629642200,16.422642333984374,-0.7438445091247559,-1.615616798400879,-1.477954387664795
1767620483669747500,16.46274755859375,-1.2475337982177734,0.6646890640258789,-0.7589821219444275
1767620483709850600,16.5028505859375,-0.8088326454162598,0.46244144439697266,-1.0386052131652832
1767620483749962000,16.5429619140625,0.27051305770874023,0.5958585739135742,-1.98032808303833
1767620483790064000,16.583064208984375,0.3619687557220459,1.4620213508605957,-2.381612777709961
1767620483830180000,16.62318017578125,1.579368233680725,1.058039665222168,-0.905663251876831
1767620483870284300,16.6632841796875,1.1134130954742432,0.1352376937866211,-2.382427453994751
1767620483910389500,16.703389404296875,0.8554297089576721,0.6051864624023438,-1.6823252439498901
1767620483950502400,16.74350244140625,1.0154162645339966,0.20276927947998047,-1.7666006088256836
1767620483990619400,16.783619384765625,1.3283967971801758,-0.33722496032714844,-2.3831729888916016
1767620484030717000,16.823717041015627,2.516716241836548,-1.6172447204589844,-2.6709065437316895
1767620484050764800,16.843764892578125,3.360690116882324,-2.406139373779297,-3.2342185974121094
1767620484070824000,16.863823974609375,3.904442071914673,-3.702967643737793,-3.386981964111328
1767620484110898400,16.9038984375,3.1120853424072266,-6.895318984985352,-3.7655868530273438
1767620484151009800,16.944009765625,2.512752056121826,-6.386666297912598,3.8808159828186035
1767620484191095300,16.98409521484375,2.6257214546203613,-3.613750457763672,-4.17862606048584
1767620484231189000,17.02418896484375,-1.5880120992660522,-6.857917785644531,-4.164677143096924
1767620484271277600,17.064277587890626,-3.9718713760375977,-4.223417282104492,-0.6877362132072449
1767620484291355100,17.084355224609375,-2.803823947906494,-2.531251907348633,-0.12948071956634521
1767620484311409000,17.104408935546875,-2.828399181365967,-1.8656158447265625,0.4135401248931885
1767620484351507700,17.1445078125,-2.682211399078369,0.02506542205810547,0.805673360824585
1767620484391605200,17.184605224609374,-2.5686047077178955,2.3975915908813477,-0.4391936659812927
1767620484431691500,17.22469140625,-5.621877193450928,1.9952178001403809,-1.80122971534729
1767620484471813600,17.264813720703124,-7.731154441833496,5.5315728187561035,1.8100717067718506
1767620484511902700,17.30490283203125,-4.624837875366211,1.5600590705871582,1.2558205127716064
1767620484552029400,17.345029541015624,-4.107982158660889,1.23193359375,-0.8160567879676819
1767620484592105200,17.385105224609376,-1.660252571105957,1.861058235168457,-1.45322585105896
1767620484632189200,17.425189208984374,3.9217281341552734,0.7768263816833496,-2.3834547996520996
1767620484672274000,17.46527392578125,0.508263111114502,-4.34648323059082,3.9173173904418945
1767620484712380200,17.505380126953124,0.03476762771606445,-0.5553956031799316,3.250077486038208
1767620484752455000,17.545454833984376,-3.3770394325256348,-0.4134836196899414,-3.4153757095336914
1767620484792532200,17.5855322265625,-2.395890951156616,-4.161829948425293,1.4961023330688477
1767620484832605400,17.62560546875,-2.2993595600128174,-1.4864311218261719,0.07280832529067993
1767620484872691700,17.665691650390624,-1.6745948791503906,-2.0984249114990234,-0.010697752237319946
1767620484912784400,17.705784423828124,-1.066014289855957,1.889063835144043,-0.7699497938156128
1767620484952908000,17.745907958984375,-0.22379779815673828,3.265015125274658,0.08933305740356445
1767620484972948200,17.7659482421875,0.1831681728363037,3.0890870094299316,-0.745941698551178
1767620484992995000,17.7859951171875,0.5784651041030884,1.9210138320922852,-2.669299602508545
1767620485033100000,17.82610009765625,0.618140697479248,0.527857780456543,-1.1003504991531372
1767620485073194800,17.86619482421875,1.7129846811294556,0.1867656707763672,0.10469299554824829
1767620485113300500,17.906300537109374,0.894539475440979,-0.6536645889282227,-1.172501564025879
1767620485153408800,17.94640869140625,-0.11115385591983795,-0.453338623046875,-1.9407920837402344
1767620485193515300,17.986515380859377,0.43488195538520813,0.41936302185058594,-2.171539306640625
1767620485233622800,18.026622802734376,1.0861451625823975,0.07194042205810547,-0.46482551097869873
1767620485273734000,18.06673388671875,1.4963293075561523,-0.8315067291259766,-1.264127492904663
1767620485313844500,18.106844482421874,1.853865623474121,-2.6619815826416016,-1.3806562423706055
1767620485353916200,18.146916259765625,2.981161594390869,-5.377285003662109,-3.202981472015381
1767620485393996800,18.186996826171875,3.530430555343628,-8.294048309326172,2.147233486175537
1767620485434080000,18.227080078125,2.471839189529419,-4.705580711364746,-1.1439305543899536
1767620485474168300,18.267168212890624,2.0203747749328613,-4.140314102172852,-1.213719129562378
1767620485514256000,18.307255859375,-3.5212044715881348,-3.2397327423095703,-0.43239355087280273
1767620485554347000,18.347346923828123,-3.4388720989227295,-0.9375286102294922,-1.2208452224731445
1767620485594448400,18.387448486328125,-2.9107666015625,0.3406658172607422,0.3461717963218689
1767620485634538200,18.427538330078125,-4.436239719390869,3.0388126373291016,1.905154824256897
1767620485674622200,18.467622314453124,-4.277103900909424,5.900468826293945,1.8719675540924072
1767620485714707500,18.50770751953125,-5.560672283172607,1.898019790649414,-0.07162010669708252
1767620485734782700,18.52778271484375,-6.016645431518555,2.13460111618042,-0.12438112497329712
1767620485754835200,18.547835205078126,-5.572768688201904,2.2471728324890137,0.6086495518684387
1767620485794926300,18.58792626953125,-3.1177968978881836,1.304758071899414,0.5777108669281006
1767620485835007000,18.628007080078124,-0.9332356452941895,1.042250633239746,-0.7004784941673279
1767620485875105800,18.668105712890625,3.0078234672546387,-0.054956912994384766,-2.102368116378784
1767620485915189800,18.708189697265624,-3.254782199859619,-3.44486665725708,2.637518882751465
1767620485955274800,18.748274658203126,0.45838308334350586,-4.559586048126221,1.6681945323944092
1767620485995365000,18.788365234375,-1.8576931953430176,0.3428468704223633,0.4570639133453369
1767620486035460600,18.828460693359375,-0.6182403564453125,-2.117757797241211,1.207111120223999
1767620486075557000,18.86855712890625,-2.6269302368164062,-2.974212646484375,0.36160558462142944
1767620486115655000,18.908655029296874,-1.7929422855377197,-0.9800968170166016,0.02853986620903015
1767620486155819000,18.948819091796874,-1.2405874729156494,1.3182706832885742,-1.136923909187317
1767620486195900200,18.988900146484376,-0.8347072601318359,2.476254940032959,-0.4466095566749573
1767620486215937800,19.008937744140624,-0.45245909690856934,2.695028305053711,-1.7220157384872437
1767620486235987000,19.028987060546875,0.060068368911743164,2.364619255065918,-2.2686126232147217
1767620486276079000,19.0690791015625,0.876908540725708,1.2773571014404297,-0.22308869659900665
1767620486316177200,19.10917724609375,1.4997247457504272,0.17644882202148438,-0.14062359929084778
1767620486356286000,19.149285888671876,0.8793967962265015,-0.4470529556274414,-0.6921882033348083
1767620486396404700,19.18940478515625,0.3154425024986267,-0.06127738952636719,-2.2490639686584473
1767620486436521500,19.229521484375,0.4031412601470947,-0.9091205596923828,-1.746105432510376
1767620486476630300,19.26963037109375,2.1028835773468018,-1.1047344207763672,-1.1716322898864746
1767620486516702200,19.3097021484375,2.6449131965637207,-2.7107315063476562,-1.2940607070922852
1767620486556812300,19.349812255859376,3.117697238922119,-6.337455749511719,-2.653170108795166
1767620486596881700,19.389881591796875,2.4727022647857666,-6.927678108215332,3.339539051055908
1767620486636956200,19.4299560546875,1.862617015838623,-4.466541290283203,-0.18217438459396362
1767620486677033700,19.47003369140625,-0.5641899108886719,-5.268092155456543,-0.04551964998245239
1767620486697101000,19.49010107421875,-2.0060200691223145,-4.199973106384277,1.2228939533233643
1767620486717146600,19.510146728515625,-2.5934553146362305,-2.019467353820801,1.0865154266357422
1767620486757214200,19.550214111328124,-2.3780269622802734,0.15590858459472656,-0.6379290819168091
1767620486797301200,19.59030126953125,-2.564986228942871,1.571082592010498,0.13479013741016388
1767620486837376500,19.63037646484375,-3.549314022064209,3.221062183380127,0.9337191581726074
1767620486877449000,19.670448974609375,-5.210965156555176,4.437022686004639,1.0240448713302612
1767620486917523700,19.710523681640623,-5.518387317657471,2.88797664642334,0.3474985361099243
1767620486957645600,19.7506455078125,-4.384870529174805,1.313127040863037,0.7435961961746216
1767620486997721300,19.790721435546875,-2.5052099227905273,0.15856361389160156,0.12616616487503052
1767620487037804000,19.830803955078125,-1.3260869979858398,0.5766220092773438,-0.3073328733444214
1767620487077891300,19.870891357421876,0.25368213653564453,0.8777990341186523,-1.0893762111663818
1767620487117965600,19.910965576171876,4.856993675231934,-1.829580307006836,-2.7403106689453125
1767620487158034400,19.951034423828126,3.2949776649475098,-4.98631477355957,5.273403167724609
1767620487198119400,19.991119384765625,-4.361478805541992,-0.9157447814941406,-0.20439547300338745
1767620487238196200,20.0311962890625,-2.5997300148010254,-0.7321486473083496,0.40740206837654114
1767620487278272500,20.0712724609375,-2.4054455757141113,-3.4340972900390625,0.2841854691505432
1767620487318353400,20.111353515625,-2.5881004333496094,-2.1235475540161133,1.4902812242507935
1767620487358438700,20.151438720703126,-1.7802391052246094,0.49272918701171875,-0.7468066811561584
1767620487398520000,20.19152001953125,-1.5286580324172974,1.6220479011535645,-0.5839529037475586
1767620487438612200,20.2316123046875,-0.1334843635559082,2.634645462036133,-0.8756011724472046
1767620487478679800,20.2716796875,0.26467621326446533,1.3160772323608398,-1.5295100212097168
1767620487518776000,20.311776123046876,0.7860007286071777,0.770258903503418,0.21181772649288177
1767620487558879200,20.351879150390626,1.3312748670578003,0.4762420654296875,-0.3618810772895813
1767620487598995200,20.3919951171875,0.44619423151016235,-0.49716854095458984,-0.9243500232696533
1767620487639100700,20.4321005859375,0.2675374448299408,-0.6118040084838867,-1.6505684852600098
1767620487679223300,20.472223388671875,0.8885130286216736,-0.8881797790527344,-1.7614235877990723
1767620487719337500,20.51233740234375,1.5818681716918945,-0.9984149932861328,-1.602662205696106
1767620487759436800,20.552436767578126,2.876474380493164,-3.3503332138061523,-0.010414481163024902
1767620487799522800,20.592522705078125,3.143514394760132,-5.949469566345215,-2.1453707218170166
1767620487839636000,20.632635986328125,2.870765209197998,-5.269554138183594,3.0763208866119385
1767620487879724800,20.672724853515625,1.9477678537368774,-4.2490234375,-0.2356419563293457
1767620487919853300,20.712853271484374,1.3908132314682007,-6.075614929199219,-2.3008577823638916
1767620487959935500,20.752935546875,-4.315578460693359,-3.3815479278564453,0.026989370584487915
1767620488000033000,20.793032958984377,-2.966808557510376,0.13738059997558594,-0.053756654262542725
1767620488040131000,20.833131103515626,-2.734696388244629,1.1963610649108887,-0.02466881275177002
1767620488080230000,20.87322998046875,-3.446384906768799,3.277517795562744,0.15867245197296143
1767620488120315000,20.91331494140625,-5.244908332824707,3.805833339691162,0.6273242831230164
1767620488160433000,20.953432861328125,-5.937484264373779,2.8664660453796387,1.6177546977996826
1767620488200514800,20.993514892578126,-4.878269195556641,0.9163861274719238,0.7333388924598694
1767620488240598500,21.0335986328125,-2.751920223236084,0.5957083702087402,0.4101495146751404
1767620488280675300,21.07367529296875,-1.2535195350646973,1.4795937538146973,-0.04234135150909424
1767620488320755700,21.113755615234375,6.115930557250977,-1.326308250427246,-2.3122129440307617
1767620488360831200,21.153831298828123,-0.5377326011657715,-2.845064163208008,4.824065208435059
1767620488400913000,21.193912841796877,-4.369392395019531,-4.695969581604004,-1.1190531253814697
1767620488420943000,21.213943115234375,-0.990623950958252,-1.0943512916564941,2.121462345123291
1767620488440987400,21.2339873046875,-2.6655685901641846,0.5304770469665527,2.179903745651245
1767620488481099000,21.27409912109375,-1.4464788436889648,-3.2142696380615234,1.4699689149856567
1767620488521175600,21.314175537109374,-2.831010341644287,-4.382691383361816,-0.8390839695930481
1767620488561242600,21.35424267578125,-2.126537799835205,0.80865478515625,-0.5323315262794495
1767620488601315300,21.3943154296875,-1.5030484199523926,2.617859363555908,0.3764384388923645
1767620488641433300,21.434433349609375,-0.8410012722015381,2.6871681213378906,-0.3556734025478363
1767620488681512000,21.474511962890624,0.10353279113769531,2.1165966987609863,-1.6683485507965088
1767620488721605400,21.51460546875,0.5467121601104736,1.5453739166259766,0.6728469133377075
1767620488761702400,21.554702392578125,2.1133460998535156,-0.9200029373168945,-0.8046709299087524
1767620488801797000,21.594797119140626,0.902076244354248,-0.6472387313842773,-1.4498698711395264
1767620488841899500,21.6348994140625,0.31761282682418823,-0.8558750152587891,-2.8220391273498535
1767620488882010400,21.67501025390625,0.37474751472473145,-1.1102237701416016,-1.4059395790100098
1767620488922106000,21.715106201171874,1.2282226085662842,-1.7212181091308594,0.5716146230697632
1767620488962183000,21.755182861328127,3.1088411808013916,-4.649602890014648,0.7291685938835144
1767620489002262300,21.79526220703125,2.256230115890503,-4.2233781814575195,-1.5658149719238281
1767620489042370000,21.8353701171875,2.5044565200805664,-5.542658805847168,3.5996055603027344
1767620489082444300,21.8754443359375,4.675272464752197,-4.209320068359375,-3.136934280395508
1767620489122524400,21.9155244140625,-2.5709986686706543,-4.33521842956543,-4.220622539520264
1767620489142560500,21.935560546875,-4.629207611083984,-3.678009033203125,-1.2893940210342407
1767620489162599200,21.95559912109375,-4.411540985107422,-1.4807929992675781,0.5874930620193481
1767620489202701600,21.99570166015625,-0.6558752059936523,0.5380926132202148,0.3247612416744232
1767620489242787800,22.035787841796875,-2.579308271408081,2.9238624572753906,1.4342681169509888
1767620489282895000,22.07589501953125,-4.077589988708496,3.462347984313965,1.0005595684051514
1767620489322973400,22.115973388671875,-4.679244041442871,4.311789512634277,1.3123480081558228
1767620489363050500,22.156050537109376,-4.851131439208984,1.251861572265625,0.24021050333976746
1767620489403124500,22.19612451171875,-3.859118938446045,-0.17647743225097656,0.02648264169692993
1767620489443206100,22.2362060546875,-3.235722541809082,-0.4408121109008789,-0.2001051902770996
1767620489483285000,22.276284912109375,-1.6640338897705078,0.3682379722595215,0.18484890460968018
1767620489523368700,22.31636865234375,-0.43354272842407227,0.9600667953491211,-0.5873485207557678
1767620489563444200,22.3564443359375,10.109478950500488,-3.9072813987731934,-3.2742373943328857
1767620489603524000,22.396524169921875,-3.7826876640319824,-2.1271753311157227,3.5866270065307617
1767620489643600600,22.4366005859375,-3.7804036140441895,0.012832164764404297,1.2281028032302856
1767620489683684400,22.476684326171874,-0.07603740692138672,-3.6458892822265625,1.6721185445785522
1767620489723765500,22.516765625,-2.0675461292266846,-1.6399531364440918,-0.4670785367488861
1767620489763853000,22.55685302734375,-2.6259617805480957,-2.1711082458496094,-0.743838906288147
1767620489803952600,22.59695263671875,-1.610196590423584,-0.6489477157592773,-1.589443325996399
1767620489844064300,22.637064208984373,-1.4268091917037964,1.9650592803955078,0.6827408075332642
1767620489864100900,22.657100830078125,-0.8935178518295288,3.1802492141723633,2.224888801574707
1767620489884140300,22.677140380859374,-0.42639243602752686,3.059089183807373,2.016343116760254
1767620489924242000,22.717241943359376,-0.04694414138793945,0.7822399139404297,-1.1355682611465454
1767620489964329200,22.7573291015625,-0.03334987163543701,1.1343517303466797,0.10501477122306824
1767620490004422700,22.797422607421876,0.6351245045661926,0.29588794708251953,-0.690178632736206
1767620490024468500,22.817468505859374,1.2393951416015625,-0.3355674743652344,-1.1295315027236938
1767620490044523000,22.83752294921875,0.7638391852378845,-0.8032875061035156,-1.1452016830444336
1767620490084630000,22.877630126953125,-0.0005716625601053238,-0.23023414611816406,-1.440183162689209
1767620490104664000,22.8976640625,-0.24986791610717773,-0.1410064697265625,-1.7760957479476929
1767620490124719000,22.917718994140625,-0.20130935311317444,-0.42022132873535156,-1.3848215341567993
1767620490164821000,22.957821044921875,0.6310971975326538,0.001094818115234375,0.32402560114860535
1767620490204925000,22.997925048828126,1.1929138898849487,-0.4534721374511719,0.4641420841217041
1767620490245030000,23.03802978515625,1.0820757150650024,-2.5913238525390625,0.8885278701782227
1767620490265064400,23.058064453125,1.77484929561615,-3.816880226135254,-0.8276468515396118
1767620490285103900,23.078103759765625,1.762345314025879,-4.807713508605957,-3.333160161972046
1767620490325213200,23.118213134765625,2.0875914096832275,-5.1309309005737305,1.5338490009307861
1767620490365286100,23.1582861328125,4.783023357391357,-4.130999565124512,-0.7445682287216187
1767620490405362200,23.198362060546874,3.0597126483917236,-4.966330528259277,-3.239342451095581
1767620490445443000,23.238443115234375,-3.7386980056762695,-4.023532867431641,0.8000085353851318
1767620490485508900,23.2785087890625,-2.8058109283447266,0.46974945068359375,2.143397331237793
1767620490525578000,23.318577880859376,-0.9682190418243408,0.2811307907104492,-1.0743649005889893
1767620490565677000,23.358677001953126,-3.678382396697998,1.7519025802612305,0.6333376169204712
1767620490605748700,23.398748779296874,-4.608353137969971,2.1835150718688965,1.008939266204834
1767620490645859600,23.438859619140626,-4.491992950439453,5.422030448913574,2.397092580795288
1767620490685946600,23.478946533203125,-4.524143218994141,0.6271758079528809,0.7601317763328552
1767620490726028300,23.5190283203125,-3.898008346557617,0.693260669708252,0.8957709670066833
1767620490766107000,23.55910693359375,-2.8468494415283203,0.5309338569641113,-0.6576395630836487
1767620490786176500,23.579176513671875,-2.113718032836914,1.2253479957580566,-0.6751499176025391
1767620490806217700,23.5992177734375,-0.926849365234375,1.3573808670043945,-0.39393123984336853
1767620490846291700,23.639291748046876,3.9923667907714844,-0.709357738494873,-2.402740001678467
1767620490886399000,23.67939892578125,4.2550129890441895,-7.774492263793945,6.674795150756836
1767620490926475300,23.719475341796876,-2.5709214210510254,1.2727360725402832,1.6771730184555054
1767620490966562800,23.759562744140624,-3.1133415699005127,-2.8787121772766113,-0.045448899269104004
1767620491006641400,23.799641357421876,-1.9733152389526367,-1.4142770767211914,0.7588456869125366
1767620491046730000,23.83972998046875,-3.045067310333252,-0.9350566864013672,0.2669422924518585
1767620491066771700,23.859771728515625,-2.8287713527679443,-1.6386566162109375,-0.6877370476722717
1767620491086820400,23.8798203125,-2.2961626052856445,-1.0545244216918945,-0.9642586708068848
1767620491126907400,23.919907470703127,-1.1297883987426758,2.328671932220459,0.9670538902282715
1767620491166981600,23.959981689453127,-0.8291028738021851,2.065582275390625,0.6773869395256042
1767620491207059500,24.0000595703125,-0.24740540981292725,0.7884654998779297,-1.6929713487625122
1767620491247227400,24.040227294921873,0.620502233505249,1.1193513870239258,0.599958062171936
1767620491287333600,24.080333740234376,0.8437386751174927,-0.5641813278198242,-0.6003625392913818
1767620491327433200,24.12043310546875,0.2516244053840637,-0.28493499755859375,-0.7458619475364685
1767620491367521800,24.160521728515626,-0.5226268768310547,0.32613563537597656,-0.7121776342391968
1767620491407621000,24.20062109375,-0.16196691989898682,-0.4411735534667969,-1.1912767887115479
1767620491447731500,24.2407314453125,-0.1647486686706543,0.4750814437866211,-0.1448047161102295
1767620491487836400,24.28083642578125,0.42116791009902954,-0.06932449340820312,0.7797513604164124
1767620491527946500,24.320946533203124,1.2844126224517822,-1.002577781677246,0.5737720727920532
1767620491568049700,24.361049560546874,1.7237684726715088,-2.7328195571899414,-1.238690972328186
1767620491608163000,24.4011630859375,2.2446937561035156,-4.900409698486328,-4.117138385772705
1767620491648242000,24.441241943359376,4.774382591247559,-5.58369255065918,2.9455652236938477
1767620491688342000,24.481342041015626,5.497681617736816,-3.2843856811523438,-3.8518636226654053
1767620491708374500,24.50137451171875,4.859133720397949,-2.9653663635253906,-5.882681846618652
1767620491728412400,24.521412353515625,-0.37741005420684814,-3.3051137924194336,-5.3476881980896
1767620491768520700,24.561520751953125,-3.9338393211364746,-4.54403018951416,-0.26336732506752014
1767620491808589300,24.60158935546875,-2.2844669818878174,-2.543044090270996,-3.66121244430542
1767620491848700400,24.641700439453125,-1.6843478679656982,-1.7319707870483398,-1.2014079093933105
1767620491888812000,24.68181201171875,-2.6697592735290527,-1.9591169357299805,-1.133639931678772
1767620491928901000,24.721901123046877,-4.401533126831055,1.9390602111816406,-0.5366945266723633
1767620491968983600,24.761983642578127,-4.7229156494140625,2.9835996627807617,-0.7545571327209473
1767620491989041200,24.782041259765624,-5.203059673309326,1.598238468170166,-1.0182013511657715
1767620492009092400,24.80209228515625,-6.010344982147217,0.6324644088745117,-0.9297444820404053
1767620492049179100,24.84217919921875,-5.939248085021973,0.3663969039916992,-0.17076164484024048
1767620492089301500,24.882301513671877,-5.072431564331055,0.5005416870117188,-0.5636178255081177
1767620492129399000,24.92239892578125,-2.8003149032592773,-0.29984188079833984,0.4042990207672119
1767620492169506300,24.96250634765625,-2.1066126823425293,-0.6131491661071777,-1.1997036933898926
1767620492209616100,25.0026162109375,-0.8544940948486328,-0.17219209671020508,-0.7522504329681396
1767620492249734700,25.042734619140624,2.238797664642334,-1.1492094993591309,-1.5248817205429077
1767620492289814500,25.082814453125,-5.197734832763672,-7.048225402832031,6.106372356414795
1767620492329925400,25.12292529296875,-0.8263325691223145,-2.9597291946411133,-5.7693047523498535
1767620492370016000,25.16301611328125,2.4517035484313965,-3.1419239044189453,2.5770668983459473
1767620492410094000,25.203093994140627,-0.9011693000793457,-0.5463690757751465,-2.2353034019470215
1767620492450185200,25.243185302734375,-0.8807730674743652,0.9083294868469238,-0.03284752368927002
1767620492470229800,25.263229736328125,-0.3771181106567383,0.3903017044067383,-0.44406187534332275
1767620492490287900,25.283287841796874,-0.13426446914672852,-0.2651796340942383,-0.6244117021560669
1767620492530399000,25.32339892578125,-0.12839937210083008,0.874537467956543,-3.492259979248047
1767620492570502700,25.363502685546877,-0.7209527492523193,0.31926536560058594,-6.717376708984375
1767620492590547700,25.383547607421875,-0.41214537620544434,0.1103506088256836,-6.076547622680664
1767620492610602800,25.403602783203127,-0.3505115509033203,0.4369382858276367,-4.28255033493042
1767620492650702000,25.4437021484375,0.06805181503295898,0.38605785369873047,-2.9288806915283203
1767620492690797300,25.48379736328125,0.28940558433532715,0.9903850555419922,-2.149068832397461
1767620492730913300,25.523913330078123,-0.5607458353042603,0.014339447021484375,-0.8139125108718872
1767620492750955500,25.54395556640625,-0.7413638234138489,-0.7876348495483398,-2.0487561225891113
1767620492771006000,25.564005859375,-0.7383508086204529,-0.7153501510620117,-2.5484747886657715
1767620492811110100,25.604110107421874,-1.506244421005249,-0.673243522644043,-2.824342727661133
1767620492851220000,25.644219970703126,-1.2740240097045898,-1.5095453262329102,-3.7312042713165283
1767620492891324400,25.684324462890626,-1.7102062702178955,-1.8028640747070312,-2.2726383209228516
1767620492931415800,25.724415771484374,0.19019567966461182,-0.17484474182128906,-0.6693928241729736
1767620492971511000,25.764510986328126,1.553478717803955,-0.004548072814941406,-1.141894817352295
1767620493011604700,25.804604736328123,-0.07465004920959473,-1.869309425354004,-2.8335390090942383
1767620493051695000,25.844695068359375,-0.7700241208076477,-0.26006412506103516,-1.940333366394043
1767620493091795200,25.884795166015625,1.870412826538086,-1.2534065246582031,-0.8286715745925903
1767620493131881500,25.924881591796876,-1.806782603263855,-3.7809104919433594,-1.8504019975662231
1767620493171955200,25.964955078125,-4.199254035949707,-2.8606042861938477,-2.153672695159912
1767620493212048000,26.0050478515625,-2.0118331909179688,0.6935796737670898,-0.18711304664611816
1767620493232084500,26.02508447265625,-0.8597116470336914,2.0939955711364746,0.5570449233055115
1767620493252126200,26.045126220703125,-0.8923149108886719,2.425032615661621,0.7718611359596252
1767620493292235500,26.085235595703125,-2.6098361015319824,0.8089580535888672,1.239985704421997
1767620493332324400,26.125324462890624,-2.5769052505493164,1.4007372856140137,2.1589677333831787
1767620493352357600,26.145357666015624,-1.6375765800476074,1.958280086517334,2.4675703048706055
1767620493372397800,26.165397705078124,-1.1220579147338867,2.216480255126953,2.0776071548461914
1767620493412471600,26.205471435546876,-1.7780694961547852,2.8209428787231445,1.70464026927948
1767620493432509700,26.225509765625,-2.1568660736083984,3.064380645751953,0.8760685920715332
1767620493452555000,26.245554931640626,-1.4001882076263428,3.0847244262695312,-0.8287691473960876
1767620493492625200,26.285625244140626,-0.7723309993743896,1.4846763610839844,-2.5910699367523193
1767620493532708900,26.325708984375,-0.26804375648498535,1.0535602569580078,-0.25604790449142456
1767620493572804600,26.3658046875,0.8913609981536865,0.9154167175292969,0.9318249225616455
1767620493612904700,26.40590478515625,1.5866270065307617,-0.8242368698120117,1.546876072883606
1767620493653004800,26.4460048828125,1.4152014255523682,1.1955900192260742,0.5457231998443604
1767620493693129500,26.48612939453125,-0.09330201148986816,1.2165966033935547,-0.33865422010421753
1767620493733220400,26.526220458984376,-0.4227513074874878,0.4574718475341797,-1.394055724143982
1767620493773320700,26.56632080078125,-0.3378406763076782,-3.3205690383911133,1.1327120065689087
1767620493793354000,26.58635400390625,0.8647990226745605,-4.9532880783081055,2.588759183883667
1767620493813399600,26.606399658203124,3.042114734649658,-6.682228088378906,1.6423330307006836
1767620493853517800,26.646517822265626,-3.216898202896118,-1.086557388305664,1.3342466354370117
1767620493893598200,26.68659814453125,-0.6033985614776611,-3.542056083679199,-1.71206533908844
1767620493933682000,26.726681884765625,-1.362228512763977,-2.6378135681152344,-2.7648839950561523
1767620493973754600,26.766754638671873,-1.6030446290969849,-1.625382423400879,-0.1321812868118286
1767620494013862700,26.806862548828125,-0.1394733190536499,0.13866138458251953,0.4935162365436554
1767620494053962800,26.846962646484375,0.12449014186859131,1.1669073104858398,0.10261476039886475
1767620494094071000,26.887071044921875,0.5025484561920166,0.8751659393310547,-0.9231337308883667
1767620494134171100,26.927171142578125,1.6178829669952393,1.763181209564209,-1.419449806213379
1767620494154218000,26.947218017578123,2.2374472618103027,1.2567787170410156,-1.3303154706954956
1767620494174266000,26.96726611328125,2.5532076358795166,0.5998620986938477,-0.989757239818573
1767620494214360600,27.007360595703126,1.0373308658599854,0.9666013717651367,-2.217998743057251
1767620494254447900,27.04744775390625,1.7724812030792236,1.5769529342651367,-1.6916970014572144
1767620494274495200,27.0674951171875,1.5761076211929321,1.4148550033569336,-1.4895442724227905
1767620494294553300,27.08755322265625,-0.18742430210113525,1.5430850982666016,-0.04306924343109131
1767620494334641400,27.127641357421876,-0.8292648196220398,1.9166874885559082,-0.11620829999446869
1767620494354674700,27.1476748046875,-0.28063106536865234,1.274113655090332,-0.8114199042320251
1767620494374728000,27.16772802734375,0.12044620513916016,0.7440738677978516,-0.8112835884094238
1767620494394779100,27.187779052734374,-1.5525388717651367,1.7467918395996094,-0.014549672603607178
1767620494414824400,27.207824462890624,-0.3226780891418457,2.8544912338256836,0.8158539533615112
1767620494454902800,27.24790283203125,-0.31913256645202637,2.9012370109558105,0.9001752138137817
1767620494495009800,27.288009765625,1.3493661880493164,-0.9057521820068359,-1.7800006866455078
1767620494535085800,27.3280859375,2.552541971206665,-4.657829284667969,-0.6174493432044983
1767620494575156000,27.368156005859376,-0.6134552955627441,-8.886907577514648,0.970879316329956
1767620494615308800,27.408308837890626,-1.5339956283569336,-1.060378074645996,0.4388290047645569
1767620494655392500,27.448392578125,-0.33706188201904297,-2.3361830711364746,-2.5215816497802734
1767620494695466000,27.488466064453124,-0.8105268478393555,-3.5783872604370117,0.6099866628646851
1767620494735534300,27.528534423828123,-2.929265022277832,0.5474157333374023,3.3920509815216064
1767620494775607000,27.56860693359375,-3.0445752143859863,2.894510269165039,1.2465806007385254
1767620494815706600,27.60870654296875,-2.095139503479004,3.693514347076416,-0.13848619163036346
1767620494855778000,27.648778076171876,-1.7837269306182861,4.213891983032227,-0.6266549825668335
1767620494895891000,27.688890869140625,-1.661458969116211,3.1893372535705566,-1.0692218542099
1767620494935965700,27.728965576171873,-0.07579755783081055,1.62001371383667,-1.1730964183807373
1767620494976064000,27.76906396484375,1.7068626880645752,0.6778812408447266,-0.49123498797416687
1767620495016168000,27.80916796875,1.28480863571167,1.3723602294921875,-1.3395518064498901
1767620495056282600,27.84928271484375,2.305068254470825,-0.1640005111694336,-1.673477053642273
1767620495076322300,27.869322265625,1.515589714050293,-2.126108169555664,-0.40923309326171875
1767620495096366300,27.889366455078125,-3.3211066722869873,-4.610611915588379,5.631169319152832
1767620495136449500,27.929449462890624,2.6449012756347656,-6.383869171142578,0.69826740026474
1767620495176536300,27.969536376953126,-1.4664100408554077,-3.682673454284668,-0.19089475274085999
1767620495216655400,28.0096552734375,-4.16215705871582,-0.3245668411254883,-3.5304243564605713
1767620495256750600,28.04975048828125,-0.9082131385803223,-7.006426811218262,-3.6865031719207764
1767620495296873200,28.089873291015625,-0.5100560188293457,-0.11408710479736328,0.07401247322559357
1767620495336958000,28.1299580078125,-0.40624094009399414,0.7776823043823242,-0.1533575803041458
1767620495356996600,28.14999658203125,0.26720452308654785,1.5753116607666016,0.5402816534042358
1767620495377049600,28.170049560546875,0.7088444232940674,2.398344039916992,0.6708604693412781
1767620495417119000,28.210118896484374,1.6137394905090332,2.776554584503174,-0.9937425255775452
1767620495457192400,28.2501923828125,1.3933066129684448,3.182340621948242,-0.06329217553138733
1767620495497266700,28.2902666015625,1.38438081741333,3.2971363067626953,0.08091846108436584
1767620495537382100,28.330382080078124,-0.8428918123245239,1.5431709289550781,-1.226525068283081
1767620495577471500,28.370471435546875,-1.1475683450698853,1.7499289512634277,-2.5527446269989014
1767620495617569800,28.41056982421875,0.26241135597229004,1.8137712478637695,-0.7794201374053955
1767620495657650700,28.450650634765626,-0.48197436332702637,1.16046142578125,-1.6877522468566895
1767620495677690600,28.470690673828123,0.6095194816589355,-0.6404380798339844,-1.756773829460144
1767620495697727200,28.490727294921875,1.820650339126587,-2.217630386352539,-0.7889301776885986
1767620495737800700,28.53080078125,1.9271464347839355,-4.431995391845703,-0.5832931995391846
1767620495777906400,28.570906494140626,0.7789912223815918,-7.521225929260254,3.395078182220459
1767620495817985500,28.610985595703124,-0.8668985366821289,-5.8239545822143555,-0.17087572813034058
1767620495858101000,28.65110107421875,-1.252148151397705,-0.8949041366577148,-1.6531317234039307
1767620495898185000,28.69118505859375,-1.630831241607666,-0.48784399032592773,1.119894027709961
1767620495938274000,28.731274169921875,-2.9500744342803955,1.3498740196228027,1.6691170930862427
1767620495978353000,28.771352783203124,-4.719179630279541,4.75755500793457,1.9616905450820923
1767620496018445300,28.8114453125,-3.781426429748535,5.861242294311523,1.5242892503738403
1767620496058524400,28.8515244140625,-3.126542091369629,5.333075523376465,-0.5147601962089539
1767620496078595800,28.871595947265625,-1.864007830619812,3.224501609802246,-2.254379987716675
1767620496098639400,28.891639404296875,-0.37997865676879883,0.1035614013671875,-2.5747711658477783
1767620496138721500,28.931721435546876,3.0005176067352295,-1.0463981628417969,-1.91872239112854
1767620496178807300,28.971807373046875,1.7529048919677734,2.3228845596313477,-0.9642296433448792
1767620496218902800,29.01190283203125,1.3591053485870361,0.9112796783447266,0.382598340511322
1767620496259003100,29.052003173828126,5.111891269683838,-3.5776052474975586,0.620133638381958
1767620496299086600,29.092086669921876,-0.7604093551635742,-3.5657167434692383,3.7525994777679443
1767620496339211500,29.13221142578125,1.372971534729004,-12.262655258178711,-2.7971787452697754
1767620496379294000,29.1722939453125,-2.504737138748169,2.1308236122131348,3.118367910385132
1767620496419410400,29.212410400390624,-1.1800960302352905,-6.280594825744629,-1.3006900548934937
1767620496459491800,29.252491943359374,-0.19156098365783691,-2.0092554092407227,-0.05486965924501419
1767620496499608300,29.2926083984375,0.23209619522094727,0.22060108184814453,-1.1126666069030762
1767620496539689500,29.332689453125,1.0622572898864746,2.580387592315674,-0.3954591751098633
1767620496559724800,29.352724853515625,1.6265902519226074,2.9432435035705566,-0.6165615916252136
1767620496579771000,29.37277099609375,1.8098901510238647,3.484152317047119,-1.831534743309021
1767620496599809000,29.39280908203125,1.5100460052490234,4.052192687988281,-2.2191619873046875
1767620496619852800,29.412852783203125,0.9166752099990845,3.7959046363830566,-1.1727582216262817
1767620496659966000,29.452966064453125,0.7615665197372437,1.0740976333618164,0.2911064624786377
1767620496700055600,29.4930556640625,-1.1204488277435303,7.017199516296387,1.5508759021759033
1767620496740134700,29.533134765625,0.021209001541137695,1.0950040817260742,-1.233176589012146
1767620496780220700,29.573220703125,0.3609771728515625,1.9046077728271484,-1.4688612222671509
1767620496820311300,29.613311279296877,1.9299557209014893,-0.9605951309204102,-0.10690110921859741
1767620496860391200,29.65339111328125,2.9097416400909424,-7.124032974243164,0.49420392513275146
1767620496900501200,29.693501220703126,-2.1469919681549072,-6.861656188964844,1.4711881875991821
1767620496940584200,29.733584228515625,-0.31299257278442383,-4.435085296630859,-3.2655999660491943
1767620496980655000,29.773655029296876,-0.7826194763183594,-2.717885971069336,-0.9589556455612183
1767620497020731600,29.813731689453125,-1.5868654251098633,-0.726104736328125,0.678409218788147
1767620497060807000,29.853806884765625,-3.929401159286499,3.0727791786193848,2.2778329849243164
1767620497100896300,29.893896240234376,-3.6222352981567383,6.076180458068848,2.4431376457214355
1767620497140989700,29.93398974609375,-3.4457643032073975,6.702720642089844,-1.3635531663894653
1767620497181078500,29.97407861328125,-2.6391124725341797,1.451488971710205,-0.6201044321060181
1767620497221201000,30.014200927734375,3.57556414604187,-2.4837608337402344,0.17867827415466309
1767620497241243600,30.03424365234375,3.5845985412597656,1.0259771347045898,-2.079238176345825
1767620497261290800,30.054290771484375,2.559434413909912,2.1860437393188477,-2.3274331092834473
1767620497281363200,30.07436328125,2.477297067642212,0.3266420364379883,-0.1661277860403061
1767620497301417700,30.094417724609375,1.5446380376815796,-3.372303009033203,2.7369284629821777
1767620497341497000,30.1344970703125,-0.021633148193359375,-3.948396682739258,2.867518901824951
1767620497381619200,30.174619140625,-0.623492956161499,-11.409706115722656,-0.7020472884178162
1767620497401660200,30.19466015625,-2.0602569580078125,-7.566725730895996,-5.686081886291504
1767620497421713000,30.214712890625,-3.863924980163574,2.0618433952331543,2.1581320762634277
1767620497461795800,30.2547958984375,0.16910052299499512,-5.702259063720703,-3.1893444061279297
1767620497501872600,30.29487255859375,-0.9298286437988281,-3.445122718811035,-0.9310250282287598
1767620497541958400,30.33495849609375,0.19474005699157715,0.4231548309326172,-0.7038170099258423
1767620497582041300,30.375041259765624,0.8473780155181885,1.5804576873779297,-0.7823899388313293
1767620497622149400,30.4151494140625,1.2465150356292725,2.6327314376831055,-0.5257561802864075
1767620497662231800,30.455231689453125,1.4629616737365723,2.8989248275756836,0.4634323716163635
1767620497702304800,30.4953046875,-1.123411774635315,4.76295280456543,0.05959942191839218
1767620497742376000,30.5353759765625,-0.3642416000366211,2.840494155883789,-2.3307971954345703
1767620497782489000,30.575489013671874,-1.647186279296875,3.390194892883301,0.21610702574253082
1767620497822574300,30.61557421875,-0.8805224895477295,4.036523818969727,-0.5584495067596436
1767620497862645500,30.6556455078125,1.9038739204406738,-3.953327178955078,-1.58986496925354
1767620497902713000,30.695713134765626,1.5894975662231445,-5.802886962890625,-1.1987110376358032
1767620497942814000,30.73581396484375,2.7283382415771484,-10.523175239562988,2.818302631378174
1767620497982882800,30.7758828125,1.1470160484313965,-4.792074203491211,-0.6895574927330017
1767620498002914800,30.795914794921874,0.17462921142578125,-3.9929494857788086,-2.522878408432007
1767620498022956000,30.8159560546875,-1.0000724792480469,-2.7361040115356445,-0.6230695247650146
1767620498063028700,30.85602880859375,-1.5445256233215332,-0.7294979095458984,2.1322803497314453
1767620498103109600,30.896109619140624,-2.9190337657928467,0.43210315704345703,2.9135046005249023
1767620498143184400,30.936184326171876,-4.709087371826172,4.148885726928711,2.5327072143554688
1767620498183288600,30.97628857421875,-4.15897274017334,5.167879104614258,0.8619649410247803
1767620498223364600,31.016364501953124,-3.801853656768799,5.609248161315918,0.04728084057569504
1767620498263440400,31.0564404296875,-1.8320456743240356,1.7299799919128418,-2.8367624282836914
1767620498303499500,31.09649951171875,1.8886427879333496,-1.207667350769043,-1.3453760147094727
1767620498343576800,31.136576904296874,3.789337396621704,0.9427003860473633,-0.5894719362258911
1767620498383656000,31.176656005859375,1.301422119140625,1.6698851585388184,-0.04378039762377739
1767620498423740200,31.216740234375,0.08045244216918945,-0.7564277648925781,0.6564559936523438
1767620498463812000,31.25681201171875,-0.9902206659317017,-4.044857025146484,2.2197494506835938
1767620498503887400,31.296887451171877,-3.20389986038208,-1.0646133422851562,0.15947532653808594
1767620498523921000,31.3169208984375,3.0914337635040283,-6.770712852478027,-2.6667776107788086
1767620498543963600,31.336963623046874,1.1456115245819092,-12.470769882202148,-5.58336067199707
1767620498584045800,31.3770458984375,-3.6585681438446045,4.758445739746094,2.4978432655334473
1767620498624131800,31.4171318359375,-0.5756096839904785,-8.152047157287598,-0.6103925704956055
1767620498644203300,31.437203369140626,-1.3287241458892822,-4.794836044311523,-2.742418050765991
1767620498664244500,31.457244384765627,0.20564961433410645,-1.3131446838378906,-0.3633034825325012
1767620498704318500,31.497318359375,-0.8496007919311523,0.9131441116333008,0.20135828852653503
1767620498744381400,31.53738134765625,0.40961265563964844,1.621385097503662,-0.6582879424095154
1767620498784463600,31.577463623046874,1.301865577697754,3.3245277404785156,0.1531284749507904
1767620498824573400,31.617573486328126,0.8902204036712646,3.061662197113037,0.3456876873970032
1767620498864651800,31.65765185546875,-0.7502405643463135,3.3261642456054688,-0.952926754951477
1767620498904751600,31.697751708984374,-0.896865725517273,3.311957359313965,-1.3450474739074707
1767620498944822000,31.737822021484376,-0.6672019958496094,1.6846585273742676,0.16574576497077942
1767620498984914700,31.777914794921877,-1.1851069927215576,2.975968837738037,1.484455943107605
1767620499025001500,31.81800146484375,0.3883817195892334,-0.739771842956543,-0.06924891471862793
1767620499065109800,31.85810986328125,1.3723490238189697,-7.131433486938477,-2.179542064666748
1767620499105180200,31.89818017578125,2.3458199501037598,-9.315908432006836,1.5984351634979248
1767620499145247700,31.938247802734374,-0.583615779876709,-5.599040985107422,0.6343512535095215
1767620499185323800,31.97832373046875,-1.3827404975891113,-1.5151948928833008,-1.1228489875793457
1767620499225411000,32.0184111328125,-2.745927333831787,-0.1174774169921875,0.4059208631515503
1767620499265507800,32.0585078125,-2.1125879287719727,-1.1890926361083984,2.4197287559509277
1767620499305584400,32.09858447265625,-3.956860303878784,2.4274024963378906,2.15533709526062
1767620499345654300,32.138654296875,-3.6249094009399414,4.405115604400635,0.5458052754402161
1767620499385722000,32.17872216796875,-2.657057285308838,4.197341442108154,-1.0592678785324097
1767620499425786400,32.218786376953126,-1.731593370437622,1.2563061714172363,-0.8960506319999695
1767620499465861000,32.25886108398438,1.2379531860351562,-0.8080434799194336,-0.7213471531867981
1767620499505943300,32.298943359375,2.217254400253296,1.4964599609375,-0.33104756474494934
1767620499546039000,32.3390390625,-0.5643372535705566,2.042598247528076,-0.5268999338150024
1767620499586119200,32.379119140625,-0.34705042839050293,1.6209888458251953,-0.930376410484314
1767620499626205400,32.419205322265626,1.464798927307129,-1.7699575424194336,0.048622503876686096
1767620499666282200,32.4592822265625,-0.2699308395385742,-3.3099899291992188,2.486466646194458
1767620499706389800,32.4993896484375,0.06835770606994629,-1.9788942337036133,3.9855008125305176
1767620499726421000,32.5194208984375,2.1483445167541504,-8.64841365814209,1.9343540668487549
1767620499746459400,32.53945947265625,1.7886292934417725,-12.364034652709961,-5.618249893188477
1767620499786562600,32.5795625,-4.223921775817871,6.4079790115356445,4.739898204803467
1767620499826645500,32.6196455078125,0.2816760540008545,-7.587968826293945,-4.327594757080078
1767620499866754600,32.65975463867188,-0.41655516624450684,-2.0139169692993164,0.11776179075241089
1767620499906822100,32.699822265625,-0.9496979713439941,-0.13007640838623047,-0.5670333504676819
1767620499946904800,32.73990478515625,0.09076619148254395,0.052557945251464844,-0.6406911611557007
1767620499986995500,32.779995361328126,0.7614631652832031,2.1043624877929688,0.11868944764137268
1767620500007052500,32.80005249023438,1.705937147140503,2.1613430976867676,-0.39112377166748047
1767620500027103700,32.82010375976562,2.455427408218384,1.707496166229248,-0.702796220779419
1767620500067209000,32.860208984375,0.8813934326171875,2.7389349937438965,0.8330155611038208
1767620500087277000,32.88027709960937,-0.2770106792449951,3.0922985076904297,0.4265582859516144
1767620500107317200,32.90031713867187,-0.4727745056152344,3.36741304397583,-0.325599730014801
1767620500147396600,32.94039672851562,-1.9536381959915161,1.7581267356872559,-1.5857985019683838
1767620500187494400,32.98049438476563,-1.8936614990234375,1.1158218383789062,-0.552689254283905
1767620500227570200,33.020570068359376,-1.1759002208709717,1.6643290519714355,0.3893969655036926
1767620500267653600,33.060653564453126,-1.374551773071289,0.5351133346557617,0.05935242772102356
1767620500307744500,33.10074462890625,0.5783834457397461,-2.249553680419922,-0.023643553256988525
1767620500347851300,33.140851318359374,3.06565523147583,-11.545581817626953,1.8016068935394287
1767620500387923500,33.18092333984375,-0.7045650482177734,-5.906518936157227,2.024707794189453
1767620500428002000,33.221001953125,-0.9593029022216797,-1.3547182083129883,0.612704336643219
1767620500468080000,33.261080078125,-1.9175634384155273,-0.8116321563720703,2.42331862449646
1767620500508188000,33.30118798828125,-2.66556978225708,-0.794156551361084,1.9837368726730347
1767620500548281000,33.34128100585937,-4.341654300689697,2.6199851036071777,2.5002379417419434
1767620500588392400,33.38139233398437,-4.613289833068848,3.3301892280578613,1.3832865953445435
1767620500628467200,33.42146728515625,-3.535336494445801,3.019926071166992,0.11349354684352875
1767620500668584400,33.46158447265625,-2.897671937942505,1.8619861602783203,-1.1254669427871704
1767620500708660200,33.50166015625,-1.6899776458740234,-0.5846147537231445,-3.135551929473877
1767620500728696000,33.521696044921875,-0.5897281169891357,-0.7119016647338867,-2.628032922744751
1767620500748747300,33.541747314453126,1.537111520767212,0.3595409393310547,-1.6802219152450562
1767620500788842000,33.581842041015626,3.5052008628845215,0.6017179489135742,-0.41765841841697693
1767620500828930000,33.62192993164062,1.7674678564071655,0.30254459381103516,0.31591859459877014
1767620500869013200,33.66201318359375,1.663979172706604,0.38643932342529297,0.0945289134979248
1767620500909118200,33.7021181640625,3.3259949684143066,-0.5659255981445312,0.6951350569725037
1767620500949216000,33.742216064453125,0.8153795003890991,-3.1125574111938477,0.18915480375289917
1767620500989291300,33.78229125976563,-0.5492987632751465,-0.3640871047973633,-0.27192360162734985
1767620501029372400,33.822372314453126,3.9039440155029297,-12.490708351135254,6.566275596618652
1767620501069480000,33.86247998046875,-6.735304832458496,3.1193366050720215,1.707139492034912
1767620501109561600,33.9025615234375,-8.276617050170898,-1.9539003372192383,-1.3137950897216797
1767620501149673000,33.9426728515625,2.6571507453918457,-4.542086601257324,-3.839841604232788
1767620501189746000,33.98274584960937,-1.3750884532928467,1.229898452758789,1.7599217891693115
1767620501229826800,34.02282690429688,-0.42074835300445557,0.6914901733398438,1.5377540588378906
1767620501269913000,34.0629130859375,-0.3480527400970459,1.4607086181640625,0.1400189995765686
1767620501309998800,34.102998779296875,1.469470739364624,2.6763458251953125,1.4645158052444458
1767620501350067700,34.143067626953126,2.55301570892334,2.218806743621826,0.5181304216384888
1767620501390154200,34.183154296875,-0.42721855640411377,2.3338189125061035,0.9206535816192627
1767620501430227700,34.22322778320312,-1.887069582939148,2.458505153656006,-1.8263254165649414
1767620501470303700,34.2633037109375,-0.8388981819152832,0.716029167175293,-0.7938324213027954
1767620501490342100,34.28334204101562,0.7670459747314453,0.2530851364135742,-0.2447109818458557
1767620501510393600,34.3033935546875,0.28263068199157715,0.6865348815917969,0.12391161918640137
1767620501550487800,34.34348779296875,1.3906655311584473,1.8501496315002441,-0.2622358202934265
1767620501590578700,34.38357861328125,1.5554733276367188,-0.22898387908935547,0.9154925346374512
1767620501630677200,34.42367724609375,1.3944950103759766,-5.989496231079102,2.4916563034057617
1767620501670745900,34.463745849609374,0.41695404052734375,-11.742297172546387,7.143764495849609
1767620501710838500,34.503838623046875,0.1550617218017578,-2.1049413681030273,1.348922610282898
1767620501750912000,34.543912109375,0.38329124450683594,-2.961236000061035,3.5908446311950684
1767620501790987500,34.58398754882813,-2.2053685188293457,0.2995619773864746,2.4371588230133057
1767620501831061000,34.62406103515625,-3.346263885498047,2.5127062797546387,4.016925811767578
1767620501871140400,34.66414038085937,-4.91680908203125,3.866548538208008,2.8546953201293945
1767620501911213800,34.7042138671875,-5.2636284828186035,3.3902549743652344,1.006416916847229
1767620501951324000,34.74432397460937,-3.9213061332702637,3.280669689178467,-0.8067969083786011
1767620501991408400,34.784408447265626,-0.06973433494567871,2.1882476806640625,-3.131403923034668
1767620502031488800,34.82448876953125,2.4841420650482178,-1.3066072463989258,-3.2419371604919434
1767620502071575800,34.86457592773438,3.6911447048187256,1.6542401313781738,0.5781736969947815
1767620502111671000,34.904671142578124,2.6772055625915527,0.33864593505859375,0.14387336373329163
1767620502151758600,34.944758544921875,3.649129867553711,0.7251920700073242,0.7927128076553345
1767620502191833900,34.98483374023437,5.37399435043335,-1.9575777053833008,1.1226894855499268
1767620502231909400,35.02490942382813,-4.2321391105651855,-4.106806755065918,1.7162811756134033
1767620502272000000,35.065,5.907273292541504,-5.502995491027832,7.641750812530518
1767620502312071200,35.1050712890625,-4.33253288269043,-3.3340845108032227,-1.342164158821106
1767620502352148700,35.14514868164063,-4.294346809387207,-2.6453161239624023,-1.5027227401733398
1767620502392218000,35.18521801757812,0.6984347105026245,-3.0027170181274414,0.5144256949424744
1767620502432329700,35.225329833984375,0.5449882745742798,-0.1299762725830078,1.0090491771697998
1767620502472415200,35.265415283203126,1.0845856666564941,0.5672235488891602,-1.156042218208313
1767620502512505000,35.30550512695312,2.434847593307495,2.1288976669311523,0.2693348526954651
1767620502552581000,35.3455810546875,4.042830467224121,2.5499682426452637,-0.4880664348602295
1767620502592667000,35.3856669921875,3.0589585304260254,2.606444835662842,-0.8070406913757324
1767620502632749800,35.42574975585938,2.4973113536834717,2.768589496612549,0.04098832607269287
1767620502672822500,35.46582250976562,0.670355498790741,3.390834331512451,-0.15652906894683838
1767620502712895500,35.5058955078125,1.1456044912338257,1.3543634414672852,-0.7976548671722412
1767620502752981200,35.54598120117188,1.8179899454116821,0.8417282104492188,0.2596108913421631
1767620502793057300,35.58605737304688,3.060014247894287,1.32708740234375,-1.0433546304702759
1767620502833141800,35.626141845703124,4.8296661376953125,-2.7541885375976562,0.5998495221138
1767620502873207800,35.66620776367188,2.494330406188965,-4.3845062255859375,2.664984941482544
1767620502913278200,35.7062783203125,-2.0318946838378906,-2.717975616455078,2.4918627738952637
1767620502953357300,35.746357421875,-0.7082655429840088,-2.1448917388916016,-1.9419529438018799
1767620502993431600,35.786431640625,-0.882596492767334,-0.09267711639404297,1.2459626197814941
1767620503033516300,35.82651635742187,-0.4435558319091797,0.6361246109008789,2.5553879737854004
1767620503073605400,35.86660546875,-2.1501121520996094,2.5638766288757324,1.9776086807250977
1767620503113662000,35.906661865234376,-1.6648943424224854,2.689108371734619,0.9498263597488403
1767620503153730800,35.94673071289063,-1.0805139541625977,3.393601894378662,-0.08065229654312134
1767620503193807600,35.9868076171875,0.2704043388366699,3.5127410888671875,-0.7468541860580444
1767620503233903600,36.02690356445312,2.3224050998687744,0.3051309585571289,-1.7175341844558716
1767620503273963300,36.06696337890625,3.8377861976623535,1.6356229782104492,-0.06640225648880005
1767620503294003200,36.08700317382812,4.629492282867432,3.0121021270751953,0.8526283502578735
1767620503314059300,36.10705932617188,3.627263069152832,1.9449129104614258,0.6625301837921143
1767620503354136300,36.14713623046875,2.707082986831665,0.33226490020751953,-0.2766631543636322
1767620503374174700,36.1671748046875,3.4335265159606934,-1.040318489074707,1.2033498287200928
1767620503394208800,36.187208740234375,3.7824325561523438,-2.728774070739746,2.3638813495635986
1767620503434281000,36.227281005859375,-2.6041998863220215,-7.108635902404785,1.151968002319336
1767620503474349000,36.26734912109375,7.066952705383301,-10.979899406433105,5.953415393829346
1767620503514422000,36.307422119140625,-2.9870386123657227,4.781620502471924,5.51032829284668
1767620503554531600,36.347531494140625,-1.9974398612976074,-7.850093841552734,-2.555739641189575
1767620503594602200,36.38760229492188,-0.12062430381774902,-1.6761913299560547,0.7543814778327942
1767620503634677800,36.427677734375,0.5997130870819092,0.38632965087890625,-0.15494346618652344
1767620503674761200,36.46776123046875,1.5818710327148438,1.1340370178222656,-1.5443150997161865
1767620503714862600,36.50786254882812,2.9444730281829834,2.427863121032715,-0.6467174887657166
1767620503754950100,36.5479501953125,2.891624927520752,1.9381403923034668,-1.4099409580230713
1767620503795057700,36.5880576171875,1.7898744344711304,2.514644145965576,-0.8859384655952454
1767620503835142100,36.62814208984375,-0.08366727828979492,3.2255430221557617,-1.4820442199707031
1767620503875244800,36.66824487304687,0.2078460454940796,1.827486515045166,-1.408019781112671
1767620503915330600,36.70833056640625,0.9037420749664307,1.517282485961914,-0.2790798544883728
1767620503955428000,36.74842797851562,-0.2567605972290039,0.3049335479736328,-2.478815793991089
1767620503995525400,36.788525390625,-0.3088719844818115,0.7955942153930664,-2.1454102993011475
1767620504035630800,36.828630859375,0.2873421907424927,0.9051351547241211,-0.5104051828384399
1767620504075718700,36.86871875,1.291420578956604,-0.06370162963867188,1.0746808052062988
1767620504115807700,36.90880786132813,4.400474548339844,-6.888686180114746,3.8321692943573
1767620504155891500,36.94889135742188,-0.6026735305786133,-4.497307777404785,-2.213109254837036
1767620504196002800,36.9890029296875,-5.607646942138672,-4.308671951293945,-5.431091785430908
1767620504236081700,37.02908154296875,-3.4573299884796143,-7.494600296020508,-7.244472026824951
1767620504276198100,37.0691982421875,-2.8390088081359863,-4.048758506774902,-2.864636182785034
1767620504316279600,37.109279541015624,-3.6802868843078613,-0.8681669235229492,-2.1165833473205566
1767620504356368600,37.14936865234375,-5.3546600341796875,-0.5885686874389648,-2.577516555786133
1767620504396471300,37.18947119140625,-5.035246849060059,-0.2705841064453125,-1.361908197402954
1767620504436586800,37.22958666992187,-5.023735046386719,-0.07215309143066406,-1.0575175285339355
1767620504476693200,37.269693359375,-4.182677745819092,0.9665107727050781,-0.7900818586349487
1767620504516815600,37.309815673828126,-4.209649085998535,0.618281364440918,-0.24897095561027527
1767620504556920800,37.3499208984375,-2.526712656021118,-1.775655746459961,-0.5764718651771545
1767620504597018000,37.39001806640625,1.1754939556121826,-1.0025901794433594,2.1958038806915283
1767620504637111600,37.43011157226562,1.5726540088653564,0.2955350875854492,-1.987345814704895
1767620504677201400,37.47020141601563,-6.012327671051025,0.674285888671875,0.9703449606895447
1767620504697243400,37.49024340820313,-2.484032154083252,-8.854348182678223,-5.962704658508301
1767620504717284400,37.510284423828125,0.2572469711303711,-6.378572463989258,-5.659993648529053
1767620504757397500,37.5503974609375,-3.0501599311828613,4.549986362457275,7.301084041595459
1767620504797469200,37.59046923828125,-2.2596778869628906,-5.371102333068848,-2.0571815967559814
1767620504837544400,37.63054443359375,-0.5885758399963379,-0.2700176239013672,-1.665691614151001
1767620504877630500,37.67063037109375,-1.0548737049102783,0.1729736328125,-0.7346405386924744
1767620504917727200,37.710727294921874,-0.16757631301879883,0.21668529510498047,0.6106058359146118
1767620504937775000,37.730775146484376,0.0725013017654419,0.5876083374023438,2.1885600090026855
1767620504957827300,37.750827392578124,0.9268659353256226,0.31078243255615234,0.528168797492981
1767620504977870300,37.77087036132812,0.2593974471092224,0.15614032745361328,-1.8779537677764893
1767620504997925000,37.79092504882812,0.5267024636268616,0.13406944274902344,-1.724574089050293
1767620505038004000,37.83100390625,1.0166170597076416,0.21047401428222656,-3.0334925651550293
1767620505078111500,37.871111572265626,0.34133219718933105,0.6591548919677734,-1.3519903421401978
1767620505098160000,37.89116015625,0.576956570148468,0.26399707794189453,-0.5741526484489441
1767620505118219000,37.911218994140626,0.6422070860862732,-0.2257366180419922,-1.1877689361572266
1767620505158323500,37.95132348632813,-0.5415199995040894,0.9125642776489258,-0.45300501585006714
1767620505198415600,37.99141552734375,-0.6199146509170532,0.22495079040527344,-0.899182915687561
1767620505218455800,38.01145581054688,-0.4018048644065857,0.29819583892822266,-0.4911413788795471
1767620505238516700,38.03151684570312,0.35766857862472534,-0.4262113571166992,-1.0709130764007568
1767620505278612700,38.07161279296875,1.6669793128967285,-1.5907707214355469,-0.7991072535514832
1767620505318692600,38.11169262695312,2.6222715377807617,-2.594038963317871,-3.748225688934326
1767620505358770400,38.1517705078125,5.025774002075195,-6.342009544372559,-3.8036088943481445
1767620505398841600,38.191841552734374,2.587022542953491,-6.310091972351074,-0.8298081159591675
1767620505418873300,38.21187329101563,2.210866689682007,-3.687215805053711,-3.1039867401123047
1767620505438912000,38.231912109375,2.45222544670105,-2.927248954772949,-4.5834760665893555
1767620505478992000,38.271991943359374,2.127142906188965,-5.656425476074219,-1.045534610748291
1767620505499026400,38.2920263671875,0.8537733554840088,-6.484127998352051,-0.7635329365730286
1767620505519067100,38.31206713867188,-0.5233156085014343,-6.401141166687012,-1.3875304460525513
1767620505559168300,38.352168212890625,-2.1063504219055176,-4.370238304138184,-3.8482937812805176
1767620505599234000,38.39223413085937,-1.002040147781372,-3.8575220108032227,1.5800408124923706
1767620505619298000,38.41229809570312,-0.27037549018859863,-2.62380313873291,1.0314319133758545
1767620505639335700,38.43233569335938,-1.5886473655700684,-2.221613883972168,1.0925726890563965
1767620505679414000,38.4724140625,-4.54055118560791,-1.9977221488952637,-0.3374328017234802
1767620505719536400,38.51253637695312,-5.039640426635742,4.961556911468506,0.8978851437568665
1767620505759596800,38.5525966796875,-7.525148391723633,1.788705825805664,-0.007183492183685303
1767620505799659300,38.5926591796875,-8.063370704650879,2.4869751930236816,1.0382543802261353
1767620505839734000,38.632734130859376,-4.516470432281494,2.7712960243225098,0.6659026145935059
1767620505879796700,38.672796630859374,-2.427494525909424,1.617161750793457,-1.967895269393921
1767620505919864600,38.71286450195313,-0.3079218864440918,0.655759334564209,-3.07548451423645
1767620505959961600,38.75296166992187,-5.991841793060303,2.3713691234588623,-0.15144264698028564
1767620506000035000,38.79303515625,23.373226165771484,-16.060474395751953,8.193354606628418
1767620506040138000,38.833137939453124,1.2441539764404297,1.7860569953918457,6.9988908767700195
1767620506080211000,38.8732109375,-6.073577880859375,-5.015090465545654,1.1731733083724976
1767620506120282000,38.9132822265625,-3.163591146469116,-3.4762868881225586,1.9386467933654785
1767620506160348200,38.95334814453125,-2.3594560623168945,-2.713308334350586,1.4043761491775513
1767620506200432400,38.99343237304687,-2.4458281993865967,-2.168980598449707,-0.18872502446174622
1767620506240527000,39.03352709960937,-2.5946602821350098,0.7715773582458496,1.214674472808838
1767620506280614400,39.073614501953124,-1.400606393814087,1.2452077865600586,-0.832973837852478
1767620506320714800,39.11371484375,-0.04873991012573242,1.576866626739502,-1.0614941120147705
1767620506360795400,39.15379541015625,0.7476531267166138,2.8292856216430664,-2.000633955001831
1767620506400878600,39.19387866210938,0.396450400352478,0.17479324340820312,-1.7754409313201904
1767620506440959500,39.23395947265625,0.9531309604644775,-0.18727970123291016,-1.5417637825012207
1767620506481056500,39.274056396484376,0.9616092443466187,-0.4137725830078125,-2.452650547027588
1767620506521149400,39.3141494140625,0.9088780879974365,-1.0922460556030273,-1.2420945167541504
1767620506561246700,39.354246826171874,1.3379799127578735,-0.09932136535644531,-0.47442954778671265
1767620506601345000,39.39434497070312,-0.20005100965499878,-0.18959522247314453,-0.5699496269226074
1767620506641427000,39.434427001953125,0.5843110084533691,-1.2556304931640625,0.27244770526885986
1767620506681509400,39.47450927734375,2.5765490531921387,-1.7811279296875,0.05975174903869629
1767620506721574400,39.51457446289062,1.5892088413238525,-4.306911468505859,-2.2988834381103516
1767620506761666800,39.55466674804688,2.07027006149292,-4.490845680236816,-1.0584148168563843
1767620506801730300,39.59473022460938,1.8227264881134033,-3.1530065536499023,-5.099766731262207
1767620506841830400,39.63483032226563,0.22504866123199463,-3.187167167663574,-6.5794267654418945
1767620506881897700,39.67489770507812,-3.8317291736602783,-5.45969295501709,-7.044031143188477
1767620506922010600,39.7150107421875,-3.4225916862487793,-4.516894340515137,-6.929189682006836
1767620506962077700,39.75507763671875,-4.923731803894043,-2.854123115539551,-5.185436248779297
1767620507002174500,39.795174560546876,-4.024862289428711,-2.281177520751953,-3.2347452640533447
1767620507042252300,39.835252197265625,-5.732040882110596,-2.560976028442383,-0.9051777720451355
1767620507062286800,39.855286865234376,-5.198455810546875,0.3079657554626465,0.809009313583374
1767620507082323500,39.87532348632813,-4.821533203125,2.999019145965576,1.9942986965179443
1767620507122386200,39.91538623046875,-6.030538082122803,-0.020952701568603516,-1.8118107318878174
1767620507162488600,39.95548852539063,-6.544729709625244,0.4829730987548828,-0.08590543270111084
1767620507202555400,39.99555541992188,-5.154617786407471,0.8485164642333984,-1.128093957901001
1767620507242659000,40.0356591796875,-3.1823887825012207,1.4670462608337402,-1.1140754222869873
1767620507262694000,40.05569384765625,-2.10078763961792,2.6942646503448486,-1.9722689390182495
1767620507282738000,40.075738037109375,-0.2626814842224121,2.388848304748535,-2.2982797622680664
1767620507322816300,40.115816162109375,-0.05873537063598633,1.2635211944580078,-3.5498435497283936
1767620507362892000,40.15589208984375,9.204221725463867,-4.674314498901367,0.14358890056610107
1767620507402977000,40.19597705078125,-8.176840782165527,2.008608341217041,-1.237257719039917
1767620507443050200,40.23605029296875,-6.409773826599121,-3.808987617492676,-3.709956645965576
1767620507483118000,40.2761181640625,-2.0938477516174316,-2.8471198081970215,0.6718441247940063
1767620507503146000,40.29614599609375,-3.0057764053344727,0.36298227310180664,0.02089226245880127
1767620507523181600,40.316181640625,-1.6722397804260254,0.0002875328063964844,0.86785888671875
1767620507563249700,40.35624975585937,-0.796656608581543,-2.359156608581543,-2.133866548538208
1767620507603324200,40.39632421875,-0.7251982688903809,0.5792236328125,-1.8648350238800049
1767620507643422500,40.43642236328125,-1.1225690841674805,2.2317018508911133,0.15779316425323486
1767620507683497500,40.47649755859375,-0.4187643527984619,0.1659717559814453,-2.1015751361846924
1767620507723578600,40.51657861328125,-0.022346973419189453,0.5840644836425781,-1.6860084533691406
1767620507763671800,40.556671875,0.5182132720947266,1.8831830024719238,-1.2157962322235107
1767620507803769900,40.59676977539063,0.5775905847549438,-0.24929523468017578,-1.6179449558258057
1767620507843865900,40.636865966796876,0.5594634413719177,-0.09175968170166016,-2.224720001220703
1767620507883969300,40.67696923828125,-0.0038011446595191956,0.591364860534668,-1.5812746286392212
1767620507924050200,40.71705029296875,0.12632569670677185,0.6636695861816406,-1.0614166259765625
1767620507964142800,40.75714282226563,0.7306862473487854,-0.44223976135253906,-0.4730895757675171
1767620508004231200,40.797231201171876,0.7808640003204346,-0.3273277282714844,-1.472801685333252
1767620508044333000,40.8373330078125,1.4628105163574219,-2.664236068725586,-1.9137667417526245
1767620508084397300,40.87739721679687,2.799118757247925,-3.612966537475586,-3.1964120864868164
1767620508124469800,40.9174697265625,2.888551712036133,-6.315152168273926,-2.7513599395751953
1767620508164548900,40.957548828125,2.4357504844665527,-6.438656806945801,1.8797324895858765
1767620508204622600,40.99762255859375,3.5138907432556152,-4.2067461013793945,-4.320990562438965
1767620508244688600,41.03768872070312,-0.375002384185791,-6.268039703369141,-3.924182891845703
1767620508284794600,41.077794677734374,-3.457139015197754,-4.11922550201416,-1.0255458354949951
1767620508324865300,41.117865234375,-3.2013370990753174,-1.7069759368896484,-0.6977410316467285
1767620508364944400,41.1579443359375,-2.8667736053466797,0.743992805480957,0.19463862478733063
1767620508405021000,41.19802099609375,-3.3907535076141357,2.439652919769287,1.5302734375
1767620508445126400,41.23812646484375,-5.245968818664551,5.185513019561768,1.9282262325286865
1767620508485201000,41.278200927734375,-6.025235176086426,3.683565855026245,1.3333008289337158
1767620508525260800,41.3182607421875,-5.16879940032959,1.8174891471862793,0.05141031742095947
1767620508565323500,41.358323486328125,-3.7031760215759277,1.025649070739746,0.2084367871284485
1767620508605388500,41.398388427734375,-1.7505569458007812,1.1934056282043457,-0.5482109785079956
1767620508645456000,41.43845581054688,4.869501113891602,-0.24397897720336914,-1.077994704246521
1767620508685522700,41.47852270507813,-0.1642012596130371,-6.961469650268555,1.547471284866333
1767620508725596200,41.51859619140625,-2.1713457107543945,0.9461045265197754,1.3311680555343628
1767620508765671400,41.55867138671875,-0.05674886703491211,-1.559638500213623,0.1289994716644287
1767620508805736200,41.59873608398438,-0.7100491523742676,-1.228708267211914,1.6097280979156494
1767620508845809200,41.63880908203125,-2.529745101928711,-1.02105712890625,0.6026431918144226
1767620508885881600,41.67888159179687,-1.3265655040740967,-1.6641874313354492,-2.387693166732788
1767620508925958100,41.718958251953126,-0.9835901260375977,0.4065666198730469,-2.376237392425537
1767620508966031000,41.75903100585938,-0.6031781435012817,3.174002170562744,1.194498062133789
1767620509006123500,41.79912353515625,0.37409698963165283,2.4380598068237305,-1.6358654499053955
1767620509046189600,41.839189453125,0.9891279339790344,0.8010702133178711,-0.3590070903301239
1767620509086284000,41.87928393554687,2.1929244995117188,0.5702943801879883,1.545221209526062
1767620509126382800,41.9193828125,1.3239800930023193,-0.25448036193847656,-1.6021217107772827
1767620509146420200,41.93942016601562,0.6967161893844604,-0.03550434112548828,-1.4537557363510132
1767620509166462000,41.9594619140625,0.29198741912841797,-0.2675294876098633,-1.965173363685608
1767620509206556700,41.999556640625,0.9104635715484619,-1.0498876571655273,-3.1180100440979004
1767620509246662100,42.039662109375,2.360435724258423,-0.9548101425170898,-3.0804214477539062
1767620509286760000,42.07976000976562,3.0299339294433594,-2.4049453735351562,-1.18881094455719
1767620509326870500,42.11987060546875,4.7201642990112305,-5.88123893737793,-1.5577392578125
1767620509366945000,42.15994506835938,3.769650459289551,-6.360163688659668,1.6203434467315674
1767620509387012400,42.180012451171876,3.330324649810791,-5.115755081176758,2.269667863845825
1767620509407052500,42.20005249023438,1.7038912773132324,-4.272911071777344,0.052380919456481934
1767620509447126800,42.24012670898438,2.284369468688965,-5.575770378112793,-1.5035035610198975
1767620509487198000,42.28019799804687,-1.6026204824447632,-5.305746078491211,-1.8710365295410156
1767620509527268600,42.3202685546875,-4.636891841888428,-0.7094078063964844,-0.646696925163269
1767620509547330800,42.340330810546874,-3.3314456939697266,0.8350839614868164,-0.5973012447357178
1767620509567372000,42.3603720703125,-2.7484629154205322,1.1242408752441406,0.8653128147125244
1767620509607441200,42.400441162109374,-3.631305456161499,2.3940019607543945,1.4558966159820557
1767620509647513300,42.44051342773437,-4.333952903747559,3.6299843788146973,1.3347337245941162
1767620509667547400,42.46054736328125,-5.007881164550781,3.3453421592712402,0.6314082145690918
1767620509687592000,42.480592041015626,-5.506706237792969,3.611083984375,0.08066275715827942
1767620509727695600,42.520695556640625,-5.246165752410889,2.465491771697998,0.2899557948112488
1767620509767768300,42.56076831054688,-4.205602169036865,2.1152825355529785,0.17214632034301758
1767620509787796500,42.58079638671875,-3.2685084342956543,1.7249913215637207,-0.9096105694770813
1767620509807837200,42.60083715820313,-1.0976619720458984,1.3075103759765625,-1.3070229291915894
1767620509847901400,42.6409013671875,6.07807731628418,-0.4421219825744629,-0.7946531772613525
1767620509867935700,42.660935791015625,5.118576526641846,-2.567413330078125,-0.6806908249855042
1767620509887974100,42.68097412109375,0.06359338760375977,-5.686782360076904,4.146524429321289
1767620509928048600,42.72104858398438,-1.1986217498779297,-0.7274250984191895,1.9808467626571655
1767620509968155600,42.76115576171875,-1.479234218597412,0.7029943466186523,-0.25629234313964844
1767620510008235300,42.8012353515625,-1.199582576751709,-3.104487419128418,0.4607803225517273
1767620510048317000,42.84131689453125,-2.277416706085205,-2.0312376022338867,-0.0912085473537445
1767620510088400600,42.881400634765626,-1.5169787406921387,-0.3401918411254883,-0.7045248746871948
1767620510108450000,42.90144995117188,-1.5363917350769043,0.6059436798095703,-2.0610294342041016
1767620510128512000,42.92151196289063,-1.2982079982757568,1.1108417510986328,-1.5384464263916016
1767620510168611800,42.96161181640625,-0.34658074378967285,2.8630433082580566,0.9377237558364868
1767620510208694300,43.0016943359375,0.21938860416412354,2.0650200843811035,-2.575859546661377
1767620510248783000,43.041783203125,1.5054162740707397,1.0458097457885742,-1.0064454078674316
1767620510288894200,43.08189428710938,2.6723973751068115,0.4421873092651367,0.5105646848678589
1767620510329009200,43.12200903320313,1.4169583320617676,-0.5541057586669922,-1.0803179740905762
1767620510369100500,43.1621005859375,1.3183932304382324,-0.928466796875,-3.179065704345703
1767620510409194800,43.20219482421875,2.23330020904541,-1.3985252380371094,-3.656693935394287
1767620510449300700,43.24230078125,2.3995611667633057,-1.241140365600586,-2.2160239219665527
1767620510489398000,43.28239794921875,3.1175737380981445,-3.434821128845215,0.005860090255737305
1767620510529509400,43.32250927734375,2.6959097385406494,-7.770081520080566,-1.6896021366119385
1767620510569577500,43.362577392578125,2.645554304122925,-5.679839134216309,3.3128509521484375
1767620510609655300,43.4026552734375,2.7174487113952637,-4.109042167663574,-2.715217351913452
1767620510649729300,43.442729248046874,-0.8970499038696289,-5.021389961242676,-0.4373183846473694
1767620510689833500,43.48283349609375,-4.227422714233398,-1.8015146255493164,0.8449536561965942
1767620510729899500,43.5228994140625,-3.3013644218444824,0.7105655670166016,-1.263763189315796
1767620510769979400,43.5629794921875,-3.285168170928955,3.6169419288635254,0.30654826760292053
1767620510810046000,43.6030458984375,-3.751176357269287,4.549945831298828,1.8925654888153076
1767620510850139600,43.6431396484375,-5.436351776123047,4.344778060913086,0.6634635925292969
1767620510870170600,43.66317065429688,-5.2494072914123535,2.2544779777526855,-0.2749956250190735
1767620510890214700,43.68321459960937,-4.442839622497559,1.4812135696411133,0.5326812267303467
1767620510930324000,43.72332397460937,-2.7874794006347656,0.8888163566589355,0.7888022065162659
1767620510970393300,43.763393310546874,-2.4241795539855957,0.27042388916015625,-1.261491298675537
1767620511010504200,43.80350415039062,-0.9304080009460449,0.8833813667297363,-0.5782909989356995
1767620511050584000,43.843583984375,7.36276388168335,-1.8565778732299805,-0.6050523519515991
1767620511090656500,43.883656494140624,-2.2423291206359863,-5.0531792640686035,2.9515178203582764
1767620511130729200,43.923729248046875,-2.1083178520202637,1.2589058876037598,2.6514477729797363
1767620511170799600,43.963799560546875,0.42455244064331055,-2.3727102279663086,0.9012422561645508
1767620511210873300,44.00387329101562,-0.9761085510253906,-1.4542837142944336,0.7424447536468506
1767620511230912500,44.02391259765625,-2.238821029663086,-1.0742130279541016,0.5965703725814819
1767620511250962400,44.04396240234375,-2.526822328567505,-1.8030385971069336,1.2771633863449097
1767620511291038500,44.08403857421875,-1.2553722858428955,-0.5406866073608398,-0.03412894904613495
1767620511311084800,44.104084716796876,-1.4419687986373901,0.4527616500854492,-0.6009743809700012
1767620511331135000,44.124135009765624,-1.6854045391082764,0.46591949462890625,-0.7680233120918274
1767620511351180500,44.1441806640625,-1.3313205242156982,0.7110691070556641,-0.26141929626464844
1767620511371238700,44.16423876953125,-0.721062183380127,1.2276229858398438,-0.47890210151672363
1767620511411342800,44.2043427734375,0.1848468780517578,2.240960121154785,-0.8634235858917236
1767620511451416600,44.24441650390625,0.5282938480377197,2.0960583686828613,0.6169372797012329
1767620511491505200,44.28450512695313,1.4914281368255615,0.48855113983154297,-1.9691245555877686
1767620511531611600,44.324611572265624,1.583648681640625,0.3368663787841797,-2.128535032272339
1767620511571718100,44.36471826171875,2.0650463104248047,-0.8607931137084961,-3.7565815448760986
1767620511591767800,44.38476782226562,2.851508855819702,-1.3441667556762695,-2.874842643737793
1767620511611829200,44.40482934570313,3.1807472705841064,-1.2990045547485352,-1.5743319988250732
1767620511651924200,44.44492431640625,1.7175824642181396,-2.8213586807250977,0.6395681500434875
1767620511692002800,44.4850029296875,2.764233112335205,-2.2098798751831055,-1.6253676414489746
1767620511732116500,44.52511645507813,2.3819427490234375,-5.612831115722656,-1.4789297580718994
1767620511752154400,44.545154296875,3.128237247467041,-5.28947639465332,1.6890788078308105
1767620511772196600,44.56519653320313,2.9115233421325684,-5.335026741027832,0.37553608417510986
1767620511812314600,44.60531469726563,3.6419389247894287,-5.006243705749512,-4.239573001861572
1767620511852401200,44.645401123046874,-3.0086750984191895,-5.296058654785156,-1.2623279094696045
1767620511892508700,44.6855087890625,-2.585773468017578,-1.878617286682129,1.270023226737976
1767620511932586200,44.72558618164062,-0.5527782440185547,0.18371295928955078,-0.06974419951438904
1767620511972680000,44.765679931640626,-2.9908998012542725,2.3811044692993164,0.9870439171791077
1767620512012754200,44.80575415039063,-3.569521427154541,2.799466133117676,0.962149977684021
1767620512052840700,44.8458408203125,-4.3875274658203125,3.7011289596557617,0.573533296585083
1767620512092918300,44.88591821289062,-5.367293834686279,3.7716124057769775,0.8412296772003174
1767620512132995800,44.92599584960937,-4.899509429931641,0.8972220420837402,-0.29438963532447815
1767620512173074700,44.96607470703125,-3.7873921394348145,1.0908493995666504,0.5575008392333984
1767620512213183000,45.00618286132813,-2.0179057121276855,1.1689443588256836,-0.5419202446937561
1767620512253264100,45.04626416015625,2.0521836280822754,-0.2932925224304199,-1.2648152112960815
1767620512293369600,45.08636962890625,8.681905746459961,-5.567713737487793,-1.359328031539917
1767620512333457200,45.12645703125,-3.3457999229431152,-0.8739175796508789,2.1952269077301025
1767620512373533400,45.16653344726563,-3.993238687515259,2.572143077850342,-1.409825086593628
1767620512413610500,45.206610595703125,0.6579670906066895,-5.0515031814575195,1.7991052865982056
1767620512453695700,45.24669580078125,-2.835653781890869,-0.6086082458496094,0.6889469623565674
1767620512493773300,45.28677319335937,-2.119805335998535,-0.7856054306030273,0.41060611605644226
1767620512533867000,45.32686694335938,-1.4204548597335815,0.29708385467529297,-1.605988621711731
1767620512573953300,45.366953369140624,-0.3642764091491699,2.974635601043701,0.8999376893043518
1767620512614060500,45.407060546875,0.5395674705505371,1.6012992858886719,-1.6978156566619873
